id,sender,sender_type,sender_id,timestamp,meta,,age,aud,condition,duration,ended_on,gender,response,response_action,time_commit,time_end,time_render,time_run,time_show,time_switch,url,vis
Margo Tenenbaum,Hello,html.Page,0,2022-03-01T09:00:55.902Z,"{""labjs_version"":""20.2.4"",""labjs_build"":{""flavor"":""development"",""commit"":""f5b4a49f956347addd546a832a3327688c2c0fef""},""location"":""https://labjs.felixhenninger.com/api/labjs_preview/index.html"",""userAgent"":""Mozilla/5.0 (Macintosh; Intel Mac OS X 10_15_7) AppleWebKit/537.36 (KHTML, like Gecko) Chrome/98.0.4758.80 Safari/537.36"",""platform"":""MacIntel"",""language"":""de-DE"",""locale"":""de"",""timeZone"":""Europe/Berlin"",""timezoneOffset"":-60,""screen_width"":1440,""screen_height"":900,""scroll_width"":1440,""scroll_height"":708,""window_innerWidth"":1440,""window_innerHeight"":756,""devicePixelRatio"":1}",,32,,,13743.711000035762,form submission,female,,,14844.5,14843.900000035763,1050.188,1086.4000000357628,1100.189,14833.797,{},
,Instructions,html.Page,1,2022-03-01T09:00:57.487Z,,,,,,1594.8030000238414,form submission,,,,16429.100000023842,16428.600000023842,14817.13,14844.800000011921,14833.797,16433.829,,
,Change Background,canvas.Screen,2,2022-03-01T09:01:00.478Z,,,,,,3000.0599999999977,timeout,,,,19420.19999998808,19417.222,16417.162,16429.400000035763,16433.829,19433.889,,
,Fixation,canvas.Screen,3_0_0_0,2022-03-01T09:01:02.661Z,,,,1,A,2183.3770000000004,timeout,,,,21603.19999998808,21600.599,19417.222,19421.600000023842,19433.889,21617.266,,grey
,Stimulus,canvas.Screen,3_0_0_1,2022-03-01T09:01:02.761Z,,,,1,A,100.00200000000041,timeout,,,,21703.69999998808,21700.601,21600.599,21603.5,21617.266,21717.268,,grey
,Reaction,canvas.Screen,3_0_0_2,2022-03-01T09:01:03.072Z,,,,1,A,291.63200003576276,response,,stim_detected,keydown(Space),22014.600000023842,22008.900000035763,21700.601,21703.900000035763,21717.268,22017.274,,grey
,Trial,flow.Sequence,3_0_0,2022-03-01T09:01:03.073Z,,,,1,A,2575.0110000357636,completion,,,,22015.19999998808,22008.900000035763,19417.222,19421.5,19433.889,22017.274,,grey
,Frame,canvas.Frame,3_0,2022-03-01T09:01:03.073Z,,,,1,A,2581.5110000357636,,,,,22015.69999998808,22015.400000035763,19417.222,19420.600000023842,19433.889,22017.274,,grey
,Fixation,canvas.Screen,3_1_0_0,2022-03-01T09:01:05.477Z,,,,1,VA,2416.715,timeout,,,,24418.900000035763,24417.322,22000.607,22016.69999998808,22017.274,24433.989,,white
,Stimulus,canvas.Screen,3_1_0_1,2022-03-01T09:01:05.578Z,,,,1,VA,100.00200000000041,timeout,,,,24519.900000035763,24517.324,24417.322,24419.5,24433.989,24533.991,,white
,Reaction,canvas.Screen,3_1_0_2,2022-03-01T09:01:05.858Z,,,,1,VA,261.60900002384005,response,,stim_detected,keydown(Space),24800.19999998808,24795.600000023842,24517.324,24520.19999998808,24533.991,24817.33,,white
,Trial,flow.Sequence,3_1_0,2022-03-01T09:01:05.859Z,,,,1,VA,2778.3260000238406,completion,,,,24801,24795.600000023842,22000.607,22016.600000023842,22017.274,24817.33,,white
,Frame,canvas.Frame,3_1,2022-03-01T09:01:05.859Z,,,,1,VA,2783.925999988078,,,,,24801.400000035763,24801.19999998808,22000.607,22015.80000001192,22017.274,24817.33,,white
,Fixation,canvas.Screen,3_2_0_0,2022-03-01T09:01:08.178Z,,,,1,A,2316.7129999999997,timeout,,,,27120.100000023842,27117.376,24800.663,24802.69999998808,24817.33,27134.043,,grey
,Stimulus,canvas.Screen,3_2_0_1,2022-03-01T09:01:08.277Z,,,,1,A,100.00199999999677,timeout,,,,27219.5,27217.378,27117.376,27120.30000001192,27134.043,27234.045,,grey
,Reaction,canvas.Screen,3_2_0_2,2022-03-01T09:01:08.579Z,,,,1,A,282.6549999880808,response,,stim_detected,keydown(Space),27521.400000035763,27516.69999998808,27217.378,27219.69999998808,27234.045,27534.051,,grey
,Trial,flow.Sequence,3_2_0,2022-03-01T09:01:08.579Z,,,,1,A,2699.3699999880773,completion,,,,27521.69999998808,27516.69999998808,24800.663,24802.5,24817.33,27534.051,,grey
,Frame,canvas.Frame,3_2,2022-03-01T09:01:08.580Z,,,,1,A,2704.470000011919,,,,,27521.900000035763,27521.80000001192,24800.663,24801.5,24817.33,27534.051,,grey
,Fixation,canvas.Screen,3_3_0_0,2022-03-01T09:01:10.578Z,,,,1,VA,2000.0400000000009,timeout,,,,29520.5,29517.424,27517.384,27523,27534.051,29534.091,,white
,Stimulus,canvas.Screen,3_3_0_1,2022-03-01T09:01:10.678Z,,,,1,VA,100.00200000000041,timeout,,,,29619.900000035763,29617.426,29517.424,29520.69999998808,29534.091,29634.093,,white
,Reaction,canvas.Screen,3_3_0_2,2022-03-01T09:01:10.913Z,,,,1,VA,216.30700003576203,response,,stim_detected,keydown(Space),29855.30000001192,29850.400000035763,29617.426,29620.19999998808,29634.093,29867.431,,white
,Trial,flow.Sequence,3_3_0,2022-03-01T09:01:10.913Z,,,,1,VA,2316.3490000357633,completion,,,,29855.600000023842,29850.400000035763,27517.384,27522.900000035763,27534.051,29867.431,,white
,Frame,canvas.Frame,3_3,2022-03-01T09:01:10.914Z,,,,1,VA,2321.6489999880796,,,,,29855.80000001192,29855.69999998808,27517.384,27522,27534.051,29867.431,,white
,Fixation,canvas.Screen,3_4_0_0,2022-03-01T09:01:13.377Z,,,,0,V,2466.7160000000003,timeout,,,,32319.19999998808,32317.48,29850.764,29856.900000035763,29867.431,32334.147,,white
,Stimulus,canvas.Screen,3_4_0_1,2022-03-01T09:01:13.477Z,,,,0,V,100.00200000000041,timeout,,,,32419.19999998808,32417.482,32317.48,32319.5,32334.147,32434.149,,white
,Reaction,canvas.Screen,3_4_0_2,2022-03-01T09:01:13.786Z,,,,0,V,289.1510000119197,response,,stim_detected,keydown(Space),32728.100000023842,32723.30000001192,32417.482,32419.400000035763,32434.149,32734.155,,white
,Trial,flow.Sequence,3_4_0,2022-03-01T09:01:13.786Z,,,,0,V,2855.8690000119204,completion,,,,32728.400000035763,32723.30000001192,29850.764,29856.80000001192,29867.431,32734.155,,white
,Frame,canvas.Frame,3_4,2022-03-01T09:01:13.787Z,,,,0,V,2861.0689999999995,,,,,32728.80000001192,32728.5,29850.764,29855.80000001192,29867.431,32734.155,,white
,Fixation,canvas.Screen,3_5_0_0,2022-03-01T09:01:16.227Z,,,,0,V,2450.048999999999,timeout,,,,35169.30000001192,35167.537,32717.488,32730,32734.155,35184.204,,white
,Stimulus,canvas.Screen,3_5_0_1,2022-03-01T09:01:16.328Z,,,,0,V,100.00200000000041,timeout,,,,35269.69999998808,35267.539,35167.537,35169.5,35184.204,35284.206,,white
,Reaction,canvas.Screen,3_5_0_2,2022-03-01T09:01:16.527Z,,,,0,V,180.89400002384355,response,,stim_detected,keydown(Space),35469.40000003576,35465.10000002384,35267.539,35269.90000003576,35284.206,35484.21,,white
,Trial,flow.Sequence,3_5_0,2022-03-01T09:01:16.528Z,,,,0,V,2730.945000023843,completion,,,,35469.69999998808,35465.10000002384,32717.488,32729.900000035763,32734.155,35484.21,,white
,Frame,canvas.Frame,3_5,2022-03-01T09:01:16.528Z,,,,0,V,2735.645000011922,,,,,35469.90000003576,35469.80000001192,32717.488,32729,32734.155,35484.21,,white
,Fixation,canvas.Screen,3_6_0_0,2022-03-01T09:01:18.077Z,,,,1,A,1550.0310000000027,timeout,,,,37019.60000002384,37017.574,35467.543,35471.19999998808,35484.21,37034.241,,grey
,Stimulus,canvas.Screen,3_6_0_1,2022-03-01T09:01:18.178Z,,,,1,A,100.00200000000041,timeout,,,,37119.80000001192,37117.576,37017.574,37019.69999998808,37034.241,37134.243,,grey
,Reaction,canvas.Screen,3_6_0_2,2022-03-01T09:01:18.553Z,,,,1,A,355.7569999999978,response,,stim_detected,keydown(Space),37494.69999998808,37490,37117.576,37119.90000003576,37134.243,37500.917,,grey
,Trial,flow.Sequence,3_6_0,2022-03-01T09:01:18.553Z,,,,1,A,2005.7900000000009,completion,,,,37495.19999998808,37490,35467.543,35471.10000002384,35484.21,37500.917,,grey
,Frame,canvas.Frame,3_6,2022-03-01T09:01:18.553Z,,,,1,A,2010.98999998808,,,,,37495.40000003576,37495.19999998808,35467.543,35470,35484.21,37500.917,,grey
,Fixation,canvas.Screen,3_7_0_0,2022-03-01T09:01:20.128Z,,,,1,VA,1583.364999999998,timeout,,,,39069.80000001192,39067.615,37484.25,37496.5,37500.917,39084.282,,white
,Stimulus,canvas.Screen,3_7_0_1,2022-03-01T09:01:20.227Z,,,,1,VA,100.00200000000041,timeout,,,,39169,39167.617,39067.615,39070.10000002384,39084.282,39184.284,,white
,Reaction,canvas.Screen,3_7_0_2,2022-03-01T09:01:20.416Z,,,,1,VA,169.71600000000035,response,,stim_detected,keydown(Space),39358.5,39354,39167.617,39169.19999998808,39184.284,39367.621,,white
,Trial,flow.Sequence,3_7_0,2022-03-01T09:01:20.417Z,,,,1,VA,1853.0829999999987,completion,,,,39358.80000001192,39354,37484.25,37496.40000003576,37500.917,39367.621,,white
,Frame,canvas.Frame,3_7,2022-03-01T09:01:20.417Z,,,,1,VA,1857.9830000357615,,,,,39359,39358.90000003576,37484.25,37495.40000003576,37500.917,39367.621,,white
,Fixation,canvas.Screen,3_8_0_0,2022-03-01T09:01:22.712Z,,,,0,V,2300.046000000002,timeout,,,,41653.80000001192,41651,39350.954,39360.30000001192,39367.621,41667.667,,white
,Stimulus,canvas.Screen,3_8_0_1,2022-03-01T09:01:22.811Z,,,,0,V,100.00200000000041,timeout,,,,41753.40000003576,41751.002,41651,41654,41667.667,41767.669,,white
,Reaction,canvas.Screen,3_8_0_2,2022-03-01T09:01:23.020Z,,,,0,V,189.03099998807738,response,,stim_detected,keydown(Space),41961.60000002384,41956.69999998808,41751.002,41753.60000002384,41767.669,41967.673,,white
,Trial,flow.Sequence,3_8_0,2022-03-01T09:01:23.020Z,,,,0,V,2589.07899998808,completion,,,,41961.90000003576,41956.69999998808,39350.954,39360.30000001192,39367.621,41967.673,,white
,Frame,canvas.Frame,3_8,2022-03-01T09:01:23.020Z,,,,0,V,2594.379000000001,,,,,41962.10000002384,41962,39350.954,39359.19999998808,39367.621,41967.673,,white
,Fixation,canvas.Screen,3_9_0_0,2022-03-01T09:01:24.761Z,,,,0,V,1750.0349999999962,timeout,,,,43702.69999998808,43701.041,41951.006,41963.30000001192,41967.673,43717.708,,white
,Stimulus,canvas.Screen,3_9_0_1,2022-03-01T09:01:24.861Z,,,,0,V,100.00200000000041,timeout,,,,43802.60000002384,43801.043,43701.041,43702.90000003576,43717.708,43817.71,,white
,Reaction,canvas.Screen,3_9_0_2,2022-03-01T09:01:25.041Z,,,,0,V,159.89000002384273,response,,stim_detected,keydown(Space),43983.10000002384,43977.60000002384,43801.043,43802.80000001192,43817.71,43984.38,,white
,Trial,flow.Sequence,3_9_0,2022-03-01T09:01:25.041Z,,,,0,V,2009.9270000238394,completion,,,,43983.40000003576,43977.60000002384,41951.006,41963.19999998808,41967.673,43984.38,,white
,Frame,canvas.Frame,3_9,2022-03-01T09:01:25.042Z,,,,0,V,2015.8269999999975,,,,,43983.60000002384,43983.5,41951.006,41962.30000001192,41967.673,43984.38,,white
,Fixation,canvas.Screen,3_10_0_0,2022-03-01T09:01:27.244Z,,,,1,A,2216.711000000003,timeout,,,,46186.5,46184.424,43967.713,43984.60000002384,43984.38,46201.091,,grey
,Stimulus,canvas.Screen,3_10_0_1,2022-03-01T09:01:27.344Z,,,,1,A,100.00200000000041,timeout,,,,46286.30000001192,46284.426,46184.424,46186.69999998808,46201.091,46301.093,,grey
,Reaction,canvas.Screen,3_10_0_2,2022-03-01T09:01:27.639Z,,,,1,A,275.40699999999924,response,,stim_detected,keydown(Space),46581.19999998808,46576.5,46284.426,46286.5,46301.093,46584.432,,grey
,Trial,flow.Sequence,3_10_0,2022-03-01T09:01:27.639Z,,,,1,A,2592.1200000000026,completion,,,,46581.5,46576.5,43967.713,43984.60000002384,43984.38,46584.432,,grey
,Frame,canvas.Frame,3_10,2022-03-01T09:01:27.640Z,,,,1,A,2597.2200000238445,,,,,46581.69999998808,46581.60000002384,43967.713,43983.69999998808,43984.38,46584.432,,grey
,Fixation,canvas.Screen,3_11_0_0,2022-03-01T09:01:29.895Z,,,,1,A,2266.7119999999995,timeout,,,,48837,48834.477,46567.765,46582.80000001192,46584.432,48851.144,,grey
,Stimulus,canvas.Screen,3_11_0_1,2022-03-01T09:01:29.995Z,,,,1,A,100.00200000000041,timeout,,,,48936.60000002384,48934.479,48834.477,48837.19999998808,48851.144,48951.146,,grey
,Reaction,canvas.Screen,3_11_0_2,2022-03-01T09:01:30.228Z,,,,1,A,214.25400003576215,response,,stim_detected,keydown(Space),49169.80000001192,49165.40000003576,48934.479,48936.80000001192,48951.146,49184.484,,grey
,Trial,flow.Sequence,3_11_0,2022-03-01T09:01:30.228Z,,,,1,A,2580.968000035762,completion,,,,49170.30000001192,49165.40000003576,46567.765,46582.69999998808,46584.432,49184.484,,grey
,Frame,canvas.Frame,3_11,2022-03-01T09:01:30.229Z,,,,1,A,2585.968000035762,,,,,49170.60000002384,49170.40000003576,46567.765,46581.80000001192,46584.432,49184.484,,grey
,Fixation,canvas.Screen,3_12_0_0,2022-03-01T09:01:31.895Z,,,,1,A,1666.7000000000044,timeout,,,,50836.69999998808,50834.517,49167.817,49171.69999998808,49184.484,50851.184,,grey
,Stimulus,canvas.Screen,3_12_0_1,2022-03-01T09:01:31.994Z,,,,1,A,100.00200000000041,timeout,,,,50935.60000002384,50934.519,50834.517,50836.90000003576,50851.184,50951.186,,grey
,Reaction,canvas.Screen,3_12_0_2,2022-03-01T09:01:32.190Z,,,,1,A,176.01399998807756,response,,stim_detected,keydown(Space),51131.60000002384,51127.19999998808,50934.519,50935.90000003576,50951.186,51134.523,,grey
,Trial,flow.Sequence,3_12_0,2022-03-01T09:01:32.190Z,,,,1,A,1942.7159999880823,completion,,,,51131.90000003576,51127.19999998808,49167.817,49171.60000002384,49184.484,51134.523,,grey
,Frame,canvas.Frame,3_12,2022-03-01T09:01:32.190Z,,,,1,A,1947.5160000000033,,,,,51132.10000002384,51132,49167.817,49170.69999998808,49184.484,51134.523,,grey
,Fixation,canvas.Screen,3_13_0_0,2022-03-01T09:01:33.878Z,,,,1,A,1700.0339999999997,timeout,,,,52820.19999998808,52817.89,51117.856,51133.19999998808,51134.523,52834.557,,grey
,Stimulus,canvas.Screen,3_13_0_1,2022-03-01T09:01:33.978Z,,,,1,A,100.00200000000041,timeout,,,,52920.30000001192,52917.892,52817.89,52820.40000003576,52834.557,52934.559,,grey
,Reaction,canvas.Screen,3_13_0_2,2022-03-01T09:01:34.185Z,,,,1,A,187.64099998807797,response,,stim_detected,keydown(Space),53126.60000002384,53122.19999998808,52917.892,52920.5,52934.559,53134.563,,grey
,Trial,flow.Sequence,3_13_0,2022-03-01T09:01:34.185Z,,,,1,A,1987.676999988078,completion,,,,53127.10000002384,53122.19999998808,51117.856,51133,51134.523,53134.563,,grey
,Frame,canvas.Frame,3_13,2022-03-01T09:01:34.185Z,,,,1,A,1992.676999988078,,,,,53127.30000001192,53127.19999998808,51117.856,51132.19999998808,51134.523,53134.563,,grey
,Fixation,canvas.Screen,3_14_0_0,2022-03-01T09:01:36.127Z,,,,1,VA,1950.038999999997,timeout,,,,55068.90000003576,55067.935,53117.896,53128.30000001192,53134.563,55084.602,,white
,Stimulus,canvas.Screen,3_14_0_1,2022-03-01T09:01:36.228Z,,,,1,VA,100.00200000000041,timeout,,,,55169.90000003576,55167.937,55067.935,55069.10000002384,55084.602,55184.604,,white
,Reaction,canvas.Screen,3_14_0_2,2022-03-01T09:01:36.459Z,,,,1,VA,211.4960000238425,response,,stim_detected,keydown(Space),55400.60000002384,55396.10000002384,55167.937,55170.19999998808,55184.604,55417.942,,white
,Trial,flow.Sequence,3_14_0,2022-03-01T09:01:36.459Z,,,,1,VA,2261.53700002384,completion,,,,55400.90000003576,55396.10000002384,53117.896,53128.30000001192,53134.563,55417.942,,white
,Frame,canvas.Frame,3_14,2022-03-01T09:01:36.459Z,,,,1,VA,2266.337000035761,,,,,55401,55400.90000003576,53117.896,53127.5,53134.563,55417.942,,white
,Fixation,canvas.Screen,3_15_0_0,2022-03-01T09:01:38.344Z,,,,1,A,1883.3709999999992,timeout,,,,57286.30000001192,57284.646,55401.275,55402.10000002384,55417.942,57301.313,,grey
,Stimulus,canvas.Screen,3_15_0_1,2022-03-01T09:01:38.444Z,,,,1,A,100.00200000000041,timeout,,,,57386.30000001192,57384.648,57284.646,57286.5,57301.313,57401.315,,grey
,Reaction,canvas.Screen,3_15_0_2,2022-03-01T09:01:38.708Z,,,,1,A,244.58500003576046,response,,stim_detected,keydown(Space),57650.30000001192,57645.90000003576,57384.648,57386.5,57401.315,57667.987,,grey
,Trial,flow.Sequence,3_15_0,2022-03-01T09:01:38.709Z,,,,1,A,2227.95800003576,completion,,,,57650.69999998808,57645.90000003576,55401.275,55402,55417.942,57667.987,,grey
,Frame,canvas.Frame,3_15,2022-03-01T09:01:38.709Z,,,,1,A,2232.7579999880763,,,,,57650.90000003576,57650.69999998808,55401.275,55401.19999998808,55417.942,57667.987,,grey
,Fixation,canvas.Screen,3_16_0_0,2022-03-01T09:01:41.028Z,,,,1,A,2316.712999999996,timeout,,,,59969.5,59968.033,57651.32,57652,57667.987,59984.7,,grey
,Stimulus,canvas.Screen,3_16_0_1,2022-03-01T09:01:41.128Z,,,,1,A,100.00200000000041,timeout,,,,60070.10000002384,60068.035,59968.033,59969.69999998808,59984.7,60084.702,,grey
,Reaction,canvas.Screen,3_16_0_2,2022-03-01T09:01:41.389Z,,,,1,A,242.09800001192343,response,,stim_detected,keydown(Space),60331.30000001192,60326.80000001192,60068.035,60070.30000001192,60084.702,60334.707,,grey
,Trial,flow.Sequence,3_16_0,2022-03-01T09:01:41.390Z,,,,1,A,2658.81300001192,completion,,,,60331.60000002384,60326.80000001192,57651.32,57652,57667.987,60334.707,,grey
,Frame,canvas.Frame,3_16,2022-03-01T09:01:41.390Z,,,,1,A,2663.712999988078,,,,,60331.80000001192,60331.69999998808,57651.32,57650.90000003576,57667.987,60334.707,,grey
,Fixation,canvas.Screen,3_17_0_0,2022-03-01T09:01:43.245Z,,,,0,V,1866.703999999998,timeout,,,,62187,62184.744,60318.04,60332.80000001192,60334.707,62201.411,,white
,Stimulus,canvas.Screen,3_17_0_1,2022-03-01T09:01:43.345Z,,,,0,V,100.00200000000041,timeout,,,,62287.19999998808,62284.746,62184.744,62187.19999998808,62201.411,62301.413,,white
,Reaction,canvas.Screen,3_17_0_2,2022-03-01T09:01:43.605Z,,,,0,V,241.1870000238414,response,,stim_detected,keydown(Space),62547.19999998808,62542.60000002384,62284.746,62287.30000001192,62301.413,62551.418,,white
,Trial,flow.Sequence,3_17_0,2022-03-01T09:01:43.606Z,,,,0,V,2207.8930000238397,completion,,,,62547.5,62542.60000002384,60318.04,60332.69999998808,60334.707,62551.418,,white
,Frame,canvas.Frame,3_17,2022-03-01T09:01:43.606Z,,,,0,V,2212.8930000238397,,,,,62547.69999998808,62547.60000002384,60318.04,60331.90000003576,60334.707,62551.418,,white
,Fixation,canvas.Screen,3_18_0_0,2022-03-01T09:01:45.595Z,,,,1,A,2000.0400000000009,timeout,,,,64536.69999998808,64534.791,62534.751,62548.69999998808,62551.418,64551.458,,grey
,Stimulus,canvas.Screen,3_18_0_1,2022-03-01T09:01:45.695Z,,,,1,A,100.00200000000041,timeout,,,,64636.90000003576,64634.793,64534.791,64537,64551.458,64651.46,,grey
,Reaction,canvas.Screen,3_18_0_2,2022-03-01T09:01:45.973Z,,,,1,A,259.14000002384273,response,,stim_detected,keydown(Space),64915.19999998808,64910.60000002384,64634.793,64637.10000002384,64651.46,64918.132,,grey
,Trial,flow.Sequence,3_18_0,2022-03-01T09:01:45.974Z,,,,1,A,2359.182000023844,completion,,,,64915.5,64910.60000002384,62534.751,62548.60000002384,62551.418,64918.132,,grey
,Frame,canvas.Frame,3_18,2022-03-01T09:01:45.974Z,,,,1,A,2364.182000023844,,,,,64915.69999998808,64915.60000002384,62534.751,62547.80000001192,62551.418,64918.132,,grey
,Fixation,canvas.Screen,3_19_0_0,2022-03-01T09:01:48.278Z,,,,0,V,2316.7130000000034,timeout,,,,67220.30000001192,67218.178,64901.465,64917.10000002384,64918.132,67234.845,,white
,Stimulus,canvas.Screen,3_19_0_1,2022-03-01T09:01:48.379Z,,,,0,V,100.00199999999313,timeout,,,,67320.80000001192,67318.18,67218.178,67220.5,67234.845,67334.847,,white
,Reaction,canvas.Screen,3_19_0_2,2022-03-01T09:01:48.617Z,,,,0,V,219.45300001192663,response,,stim_detected,keydown(Space),67559.19999998808,67554.30000001192,67318.18,67320.90000003576,67334.847,67568.185,,white
,Trial,flow.Sequence,3_19_0,2022-03-01T09:01:48.618Z,,,,0,V,2636.168000011923,completion,,,,67559.5,67554.30000001192,64901.465,64917,64918.132,67568.185,,white
,Frame,canvas.Frame,3_19,2022-03-01T09:01:48.618Z,,,,0,V,2641.468000023844,,,,,67559.69999998808,67559.60000002384,64901.465,64915.80000001192,64918.132,67568.185,,white
,Fixation,canvas.Screen,3_20_0_0,2022-03-01T09:01:50.962Z,,,,0,V,2350.047000000006,timeout,,,,69903.5,69901.565,67551.518,67561,67568.185,69918.232,,white
,Stimulus,canvas.Screen,3_20_0_1,2022-03-01T09:01:51.062Z,,,,0,V,100.00199999999313,timeout,,,,70003.90000003576,70001.567,69901.565,69903.69999998808,69918.232,70018.234,,white
,Reaction,canvas.Screen,3_20_0_2,2022-03-01T09:01:51.292Z,,,,0,V,211.0660000119242,response,,stim_detected,keydown(Space),70234,70229.30000001192,70001.567,70004.10000002384,70018.234,70251.572,,white
,Trial,flow.Sequence,3_20_0,2022-03-01T09:01:51.293Z,,,,0,V,2661.1150000119233,completion,,,,70234.40000003576,70229.30000001192,67551.518,67560.80000001192,67568.185,70251.572,,white
,Frame,canvas.Frame,3_20,2022-03-01T09:01:51.293Z,,,,0,V,2666.215000035765,,,,,70234.60000002384,70234.40000003576,67551.518,67559.80000001192,67568.185,70251.572,,white
,Fixation,canvas.Screen,3_21_0_0,2022-03-01T09:01:53.163Z,,,,1,A,1866.703999999998,timeout,,,,72104.30000001192,72101.609,70234.905,70235.5,70251.572,72118.276,,grey
,Stimulus,canvas.Screen,3_21_0_1,2022-03-01T09:01:53.262Z,,,,1,A,100.00200000000768,timeout,,,,72204.10000002384,72201.611,72101.609,72104.5,72118.276,72218.278,,grey
,Reaction,canvas.Screen,3_21_0_2,2022-03-01T09:01:53.589Z,,,,1,A,307.92199998807337,response,,stim_detected,keydown(Space),72530.80000001192,72526.19999998808,72201.611,72204.30000001192,72218.278,72534.951,,grey
,Trial,flow.Sequence,3_21_0,2022-03-01T09:01:53.589Z,,,,1,A,2274.627999988079,completion,,,,72531.10000002384,72526.19999998808,70234.905,70235.5,70251.572,72534.951,,grey
,Frame,canvas.Frame,3_21,2022-03-01T09:01:53.589Z,,,,1,A,2279.5280000238417,,,,,72531.30000001192,72531.10000002384,70234.905,70234.69999998808,70251.572,72534.951,,grey
,Fixation,canvas.Screen,3_22_0_0,2022-03-01T09:01:55.711Z,,,,1,VA,2133.376000000004,timeout,,,,74652.80000001192,74651.66,72518.284,72532.19999998808,72534.951,74668.327,,white
,Stimulus,canvas.Screen,3_22_0_1,2022-03-01T09:01:55.812Z,,,,1,VA,100.00199999999313,timeout,,,,74753.60000002384,74751.662,74651.66,74653,74668.327,74768.329,,white
,Reaction,canvas.Screen,3_22_0_2,2022-03-01T09:01:56.021Z,,,,1,VA,189.57100003576488,response,,stim_detected,keydown(Space),74962.30000001192,74957.90000003576,74751.662,74753.80000001192,74768.329,74968.333,,white
,Trial,flow.Sequence,3_22_0,2022-03-01T09:01:56.021Z,,,,1,VA,2422.949000035762,completion,,,,74962.69999998808,74957.90000003576,72518.284,72532.19999998808,72534.951,74968.333,,white
,Frame,canvas.Frame,3_22,2022-03-01T09:01:56.021Z,,,,1,VA,2427.84900001192,,,,,74962.90000003576,74962.80000001192,72518.284,72531.40000003576,72534.951,74968.333,,white
,Fixation,canvas.Screen,3_23_0_0,2022-03-01T09:01:57.762Z,,,,0,V,1750.0350000000035,timeout,,,,76704,76701.701,74951.666,74964,74968.333,76718.368,,white
,Stimulus,canvas.Screen,3_23_0_1,2022-03-01T09:01:57.862Z,,,,0,V,100.00199999999313,timeout,,,,76803.90000003576,76801.703,76701.701,76704.19999998808,76718.368,76818.37,,white
,Reaction,canvas.Screen,3_23_0_2,2022-03-01T09:01:58.248Z,,,,0,V,367.3299999880837,response,,stim_detected,keydown(Space),77190.30000001192,77185.69999998808,76801.703,76804.10000002384,76818.37,77201.711,,white
,Trial,flow.Sequence,3_23_0,2022-03-01T09:01:58.249Z,,,,0,V,2217.3669999880804,completion,,,,77190.5,77185.69999998808,74951.666,74964,74968.333,77201.711,,white
,Frame,canvas.Frame,3_23,2022-03-01T09:01:58.249Z,,,,0,V,2222.267000023843,,,,,77190.69999998808,77190.60000002384,74951.666,74963.10000002384,74968.333,77201.711,,white
,Fixation,canvas.Screen,3_24_0_0,2022-03-01T09:02:00.680Z,,,,1,A,2433.381999999998,timeout,,,,79621.19999998808,79618.426,77185.044,77191.69999998808,77201.711,79635.093,,grey
,Stimulus,canvas.Screen,3_24_0_1,2022-03-01T09:02:00.779Z,,,,1,A,100.00200000000768,timeout,,,,79721,79718.428,79618.426,79621.5,79635.093,79735.095,,grey
,Reaction,canvas.Screen,3_24_0_2,2022-03-01T09:02:01.130Z,,,,1,A,331.70500001191976,response,,stim_detected,keydown(Space),80071.60000002384,80066.80000001192,79718.428,79721.19999998808,79735.095,80085.102,,grey
,Trial,flow.Sequence,3_24_0,2022-03-01T09:02:01.130Z,,,,1,A,2865.0890000119252,completion,,,,80071.90000003576,80066.80000001192,77185.044,77191.60000002384,77201.711,80085.102,,grey
,Frame,canvas.Frame,3_24,2022-03-01T09:02:01.130Z,,,,1,A,2870.189000035767,,,,,80072.10000002384,80071.90000003576,77185.044,77190.80000001192,77201.711,80085.102,,grey
,Fixation,canvas.Screen,3_25_0_0,2022-03-01T09:02:02.846Z,,,,0,V,1716.701000000001,timeout,,,,81787.10000002384,81785.136,80068.435,80073.10000002384,80085.102,81801.803,,white
,Stimulus,canvas.Screen,3_25_0_1,2022-03-01T09:02:02.946Z,,,,0,V,100.00199999999313,timeout,,,,81887.40000003576,81885.138,81785.136,81787.40000003576,81801.803,81901.805,,white
,Reaction,canvas.Screen,3_25_0_2,2022-03-01T09:02:03.186Z,,,,0,V,221.89499998808606,response,,stim_detected,keydown(Space),82128.10000002384,82123.69999998808,81885.138,81887.60000002384,81901.805,82135.143,,white
,Trial,flow.Sequence,3_25_0,2022-03-01T09:02:03.187Z,,,,0,V,2038.5979999880801,completion,,,,82128.30000001192,82123.69999998808,80068.435,80073,80085.102,82135.143,,white
,Frame,canvas.Frame,3_25,2022-03-01T09:02:03.187Z,,,,0,V,2043.2980000357638,,,,,82128.5,82128.40000003576,80068.435,80072.19999998808,80085.102,82135.143,,white
,Fixation,canvas.Screen,3_26_0_0,2022-03-01T09:02:04.812Z,,,,1,A,1633.366000000009,timeout,,,,83754,83751.842,82118.476,82129.69999998808,82135.143,83768.509,,grey
,Stimulus,canvas.Screen,3_26_0_1,2022-03-01T09:02:04.911Z,,,,1,A,100.00199999999313,timeout,,,,83852.80000001192,83851.844,83751.842,83754.19999998808,83768.509,83868.511,,grey
,Reaction,canvas.Screen,3_26_0_2,2022-03-01T09:02:05.192Z,,,,1,A,260.9890000000014,response,,stim_detected,keydown(Space),84134,84129.5,83851.844,83853,83868.511,84151.85,,grey
,Trial,flow.Sequence,3_26_0,2022-03-01T09:02:05.193Z,,,,1,A,1994.3570000000036,completion,,,,84134.40000003576,84129.5,82118.476,82129.69999998808,82135.143,84151.85,,grey
,Frame,canvas.Frame,3_26,2022-03-01T09:02:05.193Z,,,,1,A,1999.2570000357664,,,,,84134.60000002384,84134.40000003576,82118.476,82128.69999998808,82135.143,84151.85,,grey
,Fixation,canvas.Screen,3_27_0_0,2022-03-01T09:02:07.363Z,,,,1,A,2166.709999999992,timeout,,,,86304.40000003576,86301.893,84135.183,84135.60000002384,84151.85,86318.56,,grey
,Stimulus,canvas.Screen,3_27_0_1,2022-03-01T09:02:07.462Z,,,,1,A,100.00200000000768,timeout,,,,86403.69999998808,86401.895,86301.893,86304.69999998808,86318.56,86418.562,,grey
,Reaction,canvas.Screen,3_27_0_2,2022-03-01T09:02:07.669Z,,,,1,A,187.63799998807372,response,,stim_detected,keydown(Space),86610.69999998808,86606.19999998808,86401.895,86403.80000001192,86418.562,86618.566,,grey
,Trial,flow.Sequence,3_27_0,2022-03-01T09:02:07.669Z,,,,1,A,2454.3499999880733,completion,,,,86611,86606.19999998808,84135.183,84135.60000002384,84151.85,86618.566,,grey
,Frame,canvas.Frame,3_27,2022-03-01T09:02:07.670Z,,,,1,A,2459.250000023836,,,,,86611.19999998808,86611.10000002384,84135.183,84134.69999998808,84151.85,86618.566,,grey
,Fixation,canvas.Screen,3_28_0_0,2022-03-01T09:02:09.412Z,,,,1,A,1750.034999999989,timeout,,,,88354,88351.934,86601.899,86612.19999998808,86618.566,88368.601,,grey
,Stimulus,canvas.Screen,3_28_0_1,2022-03-01T09:02:09.513Z,,,,1,A,100.00200000000768,timeout,,,,88454.60000002384,88451.936,88351.934,88354.30000001192,88368.601,88468.603,,grey
,Reaction,canvas.Screen,3_28_0_2,2022-03-01T09:02:09.731Z,,,,1,A,199.49700002383906,response,,stim_detected,keydown(Space),88672.40000003576,88668.10000002384,88451.936,88454.69999998808,88468.603,88685.274,,grey
,Trial,flow.Sequence,3_28_0,2022-03-01T09:02:09.731Z,,,,1,A,2049.5340000238357,completion,,,,88672.69999998808,88668.10000002384,86601.899,86612.19999998808,86618.566,88685.274,,grey
,Frame,canvas.Frame,3_28,2022-03-01T09:02:09.731Z,,,,1,A,2054.2340000119148,,,,,88672.90000003576,88672.80000001192,86601.899,86611.30000001192,86618.566,88685.274,,grey
,Fixation,canvas.Screen,3_29_0_0,2022-03-01T09:02:12.046Z,,,,0,V,2316.712999999989,timeout,,,,90987.60000002384,90985.32,88668.607,88673.90000003576,88685.274,91001.987,,white
,Stimulus,canvas.Screen,3_29_0_1,2022-03-01T09:02:12.146Z,,,,0,V,100.00200000000768,timeout,,,,91087.69999998808,91085.322,90985.32,90987.80000001192,91001.987,91101.989,,white
,Reaction,canvas.Screen,3_29_0_2,2022-03-01T09:02:12.377Z,,,,0,V,212.11100002384046,response,,stim_detected,keydown(Space),91318.90000003576,91314.10000002384,91085.322,91088.30000001192,91101.989,91335.327,,white
,Trial,flow.Sequence,3_29_0,2022-03-01T09:02:12.378Z,,,,0,V,2628.826000023837,completion,,,,91319.19999998808,91314.10000002384,88668.607,88673.90000003576,88685.274,91335.327,,white
,Frame,canvas.Frame,3_29,2022-03-01T09:02:12.378Z,,,,0,V,2633.925999988074,,,,,91319.40000003576,91319.19999998808,88668.607,88672.90000003576,88685.274,91335.327,,white
,Fixation,canvas.Screen,3_30_0_0,2022-03-01T09:02:14.012Z,,,,1,VA,1633.3659999999945,timeout,,,,92953.60000002384,92952.026,91318.66,91320.90000003576,91335.327,92968.693,,white
,Stimulus,canvas.Screen,3_30_0_1,2022-03-01T09:02:14.113Z,,,,1,VA,100.00200000000768,timeout,,,,93054.90000003576,93052.028,92952.026,92953.90000003576,92968.693,93068.695,,white
,Reaction,canvas.Screen,3_30_0_2,2022-03-01T09:02:14.315Z,,,,1,VA,183.30499999999302,response,,stim_detected,keydown(Space),93256.40000003576,93252,93052.028,93055.10000002384,93068.695,93268.699,,white
,Trial,flow.Sequence,3_30_0,2022-03-01T09:02:14.315Z,,,,1,VA,1916.6729999999952,completion,,,,93256.69999998808,93252,91318.66,91320.80000001192,91335.327,93268.699,,white
,Frame,canvas.Frame,3_30,2022-03-01T09:02:14.315Z,,,,1,VA,1921.3729999880743,,,,,93256.80000001192,93256.69999998808,91318.66,91319.5,91335.327,93268.699,,white
,Fixation,canvas.Screen,3_31_0_0,2022-03-01T09:02:16.530Z,,,,1,A,2216.7110000000102,timeout,,,,95471.69999998808,95468.743,93252.032,93257.90000003576,93268.699,95485.41,,grey
,Stimulus,canvas.Screen,3_31_0_1,2022-03-01T09:02:16.629Z,,,,1,A,100.00199999999313,timeout,,,,95570.5,95568.745,95468.743,95471.80000001192,95485.41,95585.412,,grey
,Reaction,canvas.Screen,3_31_0_2,2022-03-01T09:02:16.828Z,,,,1,A,179.48800003576616,response,,stim_detected,keydown(Space),95769.19999998808,95764.90000003576,95568.745,95570.80000001192,95585.412,95785.416,,grey
,Trial,flow.Sequence,3_31_0,2022-03-01T09:02:16.828Z,,,,1,A,2496.2010000357695,completion,,,,95769.5,95764.90000003576,93252.032,93257.80000001192,93268.699,95785.416,,grey
,Frame,canvas.Frame,3_31,2022-03-01T09:02:16.828Z,,,,1,A,2500.9010000238486,,,,,95769.69999998808,95769.60000002384,93252.032,93257,93268.699,95785.416,,grey
,Fixation,canvas.Screen,3_32_0_0,2022-03-01T09:02:18.896Z,,,,1,A,2066.7079999999987,timeout,,,,97837.80000001192,97835.457,95768.749,95771.60000002384,95785.416,97852.124,,grey
,Stimulus,canvas.Screen,3_32_0_1,2022-03-01T09:02:18.996Z,,,,1,A,100.00200000000768,timeout,,,,97937.60000002384,97935.459,97835.457,97838,97852.124,97952.126,,grey
,Reaction,canvas.Screen,3_32_0_2,2022-03-01T09:02:19.215Z,,,,1,A,199.57399998807523,response,,stim_detected,keydown(Space),98156.5,98151.69999998808,97935.459,97938.19999998808,97952.126,98168.797,,grey
,Trial,flow.Sequence,3_32_0,2022-03-01T09:02:19.215Z,,,,1,A,2366.2839999880816,completion,,,,98156.90000003576,98151.69999998808,95768.749,95771.5,95785.416,98168.797,,grey
,Frame,canvas.Frame,3_32,2022-03-01T09:02:19.216Z,,,,1,A,2371.5840000000026,,,,,98157.10000002384,98157,95768.749,95769.80000001192,95785.416,98168.797,,grey
,Fixation,canvas.Screen,3_33_0_0,2022-03-01T09:02:21.479Z,,,,0,V,2266.7119999999995,timeout,,,,100421,100418.842,98152.13,98158.10000002384,98168.797,100435.509,,white
,Stimulus,canvas.Screen,3_33_0_1,2022-03-01T09:02:21.579Z,,,,0,V,100.00199999999313,timeout,,,,100520.90000003576,100518.844,100418.842,100421.10000002384,100435.509,100535.511,,white
,Reaction,canvas.Screen,3_33_0_2,2022-03-01T09:02:21.802Z,,,,0,V,203.08900002384325,response,,stim_detected,keydown(Space),100743.30000001192,100738.60000002384,100518.844,100521.60000002384,100535.511,100752.182,,white
,Trial,flow.Sequence,3_33_0,2022-03-01T09:02:21.802Z,,,,0,V,2569.803000023836,completion,,,,100743.5,100738.60000002384,98152.13,98158.10000002384,98168.797,100752.182,,white
,Frame,canvas.Frame,3_33,2022-03-01T09:02:21.802Z,,,,0,V,2574.803000023836,,,,,100743.69999998808,100743.60000002384,98152.13,98157.19999998808,98168.797,100752.182,,white
,Fixation,canvas.Screen,3_34_0_0,2022-03-01T09:02:23.879Z,,,,0,V,2083.375,timeout,,,,102820.69999998808,102818.89,100735.515,100744.69999998808,100752.182,102835.557,,white
,Stimulus,canvas.Screen,3_34_0_1,2022-03-01T09:02:23.979Z,,,,0,V,100.00199999999313,timeout,,,,102920.60000002384,102918.892,102818.89,102820.90000003576,102835.557,102935.559,,white
,Reaction,canvas.Screen,3_34_0_2,2022-03-01T09:02:24.195Z,,,,0,V,195.94100000000617,response,,stim_detected,keydown(Space),103136.10000002384,103131.5,102918.892,102920.90000003576,102935.559,103152.23,,white
,Trial,flow.Sequence,3_34_0,2022-03-01T09:02:24.195Z,,,,0,V,2379.3179999999993,completion,,,,103136.40000003576,103131.5,100735.515,100744.60000002384,100752.182,103152.23,,white
,Frame,canvas.Frame,3_34,2022-03-01T09:02:24.195Z,,,,0,V,2384.3179999999993,,,,,103136.5,103136.5,100735.515,100743.80000001192,100752.182,103152.23,,white
,Fixation,canvas.Screen,3_35_0_0,2022-03-01T09:02:26.146Z,,,,1,A,1950.0390000000043,timeout,,,,105087.60000002384,105085.602,103135.563,103137.60000002384,103152.23,105102.269,,grey
,Stimulus,canvas.Screen,3_35_0_1,2022-03-01T09:02:26.247Z,,,,1,A,100.00199999999313,timeout,,,,105188.40000003576,105185.604,105085.602,105087.80000001192,105102.269,105202.271,,grey
,Reaction,canvas.Screen,3_35_0_2,2022-03-01T09:02:26.544Z,,,,1,A,278.02900001192756,response,,stim_detected,keydown(Space),105485,105480.30000001192,105185.604,105188.60000002384,105202.271,105502.277,,grey
,Trial,flow.Sequence,3_35_0,2022-03-01T09:02:26.544Z,,,,1,A,2328.070000011925,completion,,,,105485.40000003576,105480.30000001192,103135.563,103137.40000003576,103152.23,105502.277,,grey
,Frame,canvas.Frame,3_35,2022-03-01T09:02:26.544Z,,,,1,A,2333.270000000004,,,,,105485.60000002384,105485.5,103135.563,103136.69999998808,103152.23,105502.277,,grey
,Fixation,canvas.Screen,3_36_0_0,2022-03-01T09:02:28.696Z,,,,1,VA,2150.043000000005,timeout,,,,107637.69999998808,107635.653,105485.61,105486.60000002384,105502.277,107652.32,,white
,Stimulus,canvas.Screen,3_36_0_1,2022-03-01T09:02:28.796Z,,,,1,VA,100.00199999999313,timeout,,,,107737.60000002384,107735.655,107635.653,107638.10000002384,107652.32,107752.322,,white
,Reaction,canvas.Screen,3_36_0_2,2022-03-01T09:02:28.987Z,,,,1,VA,171.9780000119208,response,,stim_detected,keydown(Space),107928.80000001192,107924.30000001192,107735.655,107737.80000001192,107752.322,107952.326,,white
,Trial,flow.Sequence,3_36_0,2022-03-01T09:02:28.988Z,,,,1,VA,2422.023000011919,completion,,,,107929.10000002384,107924.30000001192,105485.61,105486.60000002384,105502.277,107952.326,,white
,Frame,canvas.Frame,3_36,2022-03-01T09:02:28.988Z,,,,1,VA,2427.023000011919,,,,,107929.30000001192,107929.30000001192,105485.61,105485.60000002384,105502.277,107952.326,,white
,Fixation,canvas.Screen,3_37_0_0,2022-03-01T09:02:31.313Z,,,,1,A,2316.7130000000034,timeout,,,,110254.69999998808,110252.372,107918.992,107930.40000003576,107952.326,110269.039,,grey
,Stimulus,canvas.Screen,3_37_0_1,2022-03-01T09:02:31.414Z,,,,1,A,100.00199999999313,timeout,,,,110355,110352.374,110252.372,110255,110269.039,110369.041,,grey
,Reaction,canvas.Screen,3_37_0_2,2022-03-01T09:02:31.636Z,,,,1,A,204.85900003576535,response,,stim_detected,keydown(Space),110577.30000001192,110573.90000003576,110352.374,110355.10000002384,110369.041,110585.712,,grey
,Trial,flow.Sequence,3_37_0,2022-03-01T09:02:31.636Z,,,,1,A,2621.574000035762,completion,,,,110577.5,110573.90000003576,107918.992,107930.40000003576,107952.326,110585.712,,grey
,Frame,canvas.Frame,3_37,2022-03-01T09:02:31.636Z,,,,1,A,2625.173999999999,,,,,110577.60000002384,110577.5,107918.992,107929.40000003576,107952.326,110585.712,,grey
,Fixation,canvas.Screen,3_38_0_0,2022-03-01T09:02:33.446Z,,,,1,A,1816.702999999994,timeout,,,,112386.90000003576,112385.748,110569.045,110578.40000003576,110585.712,112402.415,,grey
,Stimulus,canvas.Screen,3_38_0_1,2022-03-01T09:02:33.546Z,,,,1,A,100.00200000000768,timeout,,,,112487.19999998808,112485.75,112385.748,112387.10000002384,112402.415,112502.417,,grey
,Reaction,canvas.Screen,3_38_0_2,2022-03-01T09:02:33.825Z,,,,1,A,259.5829999999987,response,,stim_detected,keydown(Space),112766.5,112762,112485.75,112487.5,112502.417,112769.089,,grey
,Trial,flow.Sequence,3_38_0,2022-03-01T09:02:33.825Z,,,,1,A,2176.2880000000005,completion,,,,112766.69999998808,112762,110569.045,110578.30000001192,110585.712,112769.089,,grey
,Frame,canvas.Frame,3_38,2022-03-01T09:02:33.825Z,,,,1,A,2181.0880000119214,,,,,112766.90000003576,112766.80000001192,110569.045,110577.69999998808,110585.712,112769.089,,grey
,Fixation,canvas.Screen,3_39_0_0,2022-03-01T09:02:36.280Z,,,,1,A,2466.715999999986,timeout,,,,115221.40000003576,115219.138,112752.422,112768,112769.089,115235.805,,grey
,Stimulus,canvas.Screen,3_39_0_1,2022-03-01T09:02:36.380Z,,,,1,A,100.00200000000768,timeout,,,,115321.40000003576,115319.14,115219.138,115221.60000002384,115235.805,115335.807,,grey
,Reaction,canvas.Screen,3_39_0_2,2022-03-01T09:02:36.651Z,,,,1,A,251.0930000357621,response,,stim_detected,keydown(Space),115592.19999998808,115586.90000003576,115319.14,115321.60000002384,115335.807,115602.479,,grey
,Trial,flow.Sequence,3_39_0,2022-03-01T09:02:36.651Z,,,,1,A,2817.8110000357556,completion,,,,115592.40000003576,115586.90000003576,112752.422,112768,112769.089,115602.479,,grey
,Frame,canvas.Frame,3_39,2022-03-01T09:02:36.651Z,,,,1,A,2823.3110000357556,,,,,115592.60000002384,115592.40000003576,112752.422,112766.90000003576,112769.089,115602.479,,grey
,Fixation,canvas.Screen,3_40_0_0,2022-03-01T09:02:38.797Z,,,,1,A,2150.0429999999906,timeout,,,,117737.90000003576,117735.855,115585.812,115593.60000002384,115602.479,117752.522,,grey
,Stimulus,canvas.Screen,3_40_0_1,2022-03-01T09:02:38.897Z,,,,1,A,100.00200000000768,timeout,,,,117838.19999998808,117835.857,117735.855,117738.10000002384,117752.522,117852.524,,grey
,Reaction,canvas.Screen,3_40_0_2,2022-03-01T09:02:39.092Z,,,,1,A,176.17599998807418,response,,stim_detected,keydown(Space),118033.10000002384,118028.69999998808,117835.857,117838.40000003576,117852.524,118052.528,,grey
,Trial,flow.Sequence,3_40_0,2022-03-01T09:02:39.092Z,,,,1,A,2426.2209999880724,completion,,,,118033.40000003576,118028.69999998808,115585.812,115593.60000002384,115602.479,118052.528,,grey
,Frame,canvas.Frame,3_40,2022-03-01T09:02:39.092Z,,,,1,A,2431.0209999999934,,,,,118033.60000002384,118033.5,115585.812,115592.69999998808,115602.479,118052.528,,grey
,Fixation,canvas.Screen,3_41_0_0,2022-03-01T09:02:41.564Z,,,,1,A,2483.382999999987,timeout,,,,120505.30000001192,120502.577,118035.861,118035,118052.528,120535.911,,grey
,Stimulus,canvas.Screen,3_41_0_1,2022-03-01T09:02:41.680Z,,,,1,A,100.00200000000768,timeout,,,,120621.30000001192,120619.246,120502.577,120505.5,120535.911,120635.913,,grey
,Reaction,canvas.Screen,3_41_0_2,2022-03-01T09:02:41.913Z,,,,1,A,213.58699999999953,response,,stim_detected,keydown(Space),120854.10000002384,120849.5,120619.246,120621.5,120635.913,120869.251,,grey
,Trial,flow.Sequence,3_41_0,2022-03-01T09:02:41.913Z,,,,1,A,2796.9719999999943,completion,,,,120854.5,120849.5,118035.861,118034.5,118052.528,120869.251,,grey
,Frame,canvas.Frame,3_41,2022-03-01T09:02:41.913Z,,,,1,A,2801.9719999999943,,,,,120854.69999998808,120854.5,118035.861,118033.69999998808,118052.528,120869.251,,grey
,Fixation,canvas.Screen,3_42_0_0,2022-03-01T09:02:43.980Z,,,,0,V,2066.7079999999987,timeout,,,,122921.69999998808,122919.292,120852.584,120855.69999998808,120869.251,122935.959,,white
,Stimulus,canvas.Screen,3_42_0_1,2022-03-01T09:02:44.081Z,,,,0,V,100.00199999999313,timeout,,,,123022,123019.294,122919.292,122921.90000003576,122935.959,123035.961,,white
,Reaction,canvas.Screen,3_42_0_2,2022-03-01T09:02:44.315Z,,,,0,V,215.4390000357671,response,,stim_detected,keydown(Space),123255.80000001192,123251.40000003576,123019.294,123022.19999998808,123035.961,123269.299,,white
,Trial,flow.Sequence,3_42_0,2022-03-01T09:02:44.315Z,,,,0,V,2382.149000035759,completion,,,,123256.19999998808,123251.40000003576,120852.584,120855.69999998808,120869.251,123269.299,,white
,Frame,canvas.Frame,3_42,2022-03-01T09:02:44.315Z,,,,0,V,2387.049000011917,,,,,123256.40000003576,123256.30000001192,120852.584,120854.80000001192,120869.251,123269.299,,white
,Fixation,canvas.Screen,3_43_0_0,2022-03-01T09:02:46.513Z,,,,1,A,2200.0439999999944,timeout,,,,125454.30000001192,125452.676,123252.632,123257.30000001192,123269.299,125469.343,,grey
,Stimulus,canvas.Screen,3_43_0_1,2022-03-01T09:02:46.613Z,,,,1,A,100.00200000000768,timeout,,,,125554.30000001192,125552.678,125452.676,125454.5,125469.343,125569.345,,grey
,Reaction,canvas.Screen,3_43_0_2,2022-03-01T09:02:46.877Z,,,,1,A,244.05500003576162,response,,stim_detected,keydown(Space),125818.10000002384,125813.40000003576,125552.678,125554.60000002384,125569.345,125836.017,,grey
,Trial,flow.Sequence,3_43_0,2022-03-01T09:02:46.877Z,,,,1,A,2544.1010000357637,completion,,,,125818.40000003576,125813.40000003576,123252.632,123257.30000001192,123269.299,125836.017,,grey
,Frame,canvas.Frame,3_43,2022-03-01T09:02:46.877Z,,,,1,A,2549.1010000357637,,,,,125818.60000002384,125818.40000003576,123252.632,123256.5,123269.299,125836.017,,grey
,Fixation,canvas.Screen,3_44_0_0,2022-03-01T09:02:48.647Z,,,,0,V,1766.7019999999902,timeout,,,,127588.5,127586.052,125819.35,125819.60000002384,125836.017,127602.719,,white
,Stimulus,canvas.Screen,3_44_0_1,2022-03-01T09:02:48.747Z,,,,0,V,100.00200000000768,timeout,,,,127688.5,127686.054,127586.052,127589.30000001192,127602.719,127702.721,,white
,Reaction,canvas.Screen,3_44_0_2,2022-03-01T09:02:48.992Z,,,,0,V,226.37900002383685,response,,stim_detected,keydown(Space),127933.69999998808,127929.10000002384,127686.054,127688.80000001192,127702.721,127936.059,,white
,Trial,flow.Sequence,3_44_0,2022-03-01T09:02:48.993Z,,,,0,V,2093.0830000238348,completion,,,,127934,127929.10000002384,125819.35,125819.5,125836.017,127936.059,,white
,Frame,canvas.Frame,3_44,2022-03-01T09:02:48.993Z,,,,0,V,2098.0830000238348,,,,,127934.19999998808,127934.10000002384,125819.35,125818.60000002384,125836.017,127936.059,,white
,Fixation,canvas.Screen,3_45_0_0,2022-03-01T09:02:50.847Z,,,,1,VA,1866.7040000000125,timeout,,,,129788.10000002384,129786.096,127919.392,127935.30000001192,127936.059,129802.763,,white
,Stimulus,canvas.Screen,3_45_0_1,2022-03-01T09:02:50.947Z,,,,1,VA,100.00199999999313,timeout,,,,129888.30000001192,129886.098,129786.096,129788.30000001192,129802.763,129902.765,,white
,Reaction,canvas.Screen,3_45_0_2,2022-03-01T09:02:51.155Z,,,,1,VA,189.33500002384244,response,,stim_detected,keydown(Space),130096.5,130092.10000002384,129886.098,129888.5,129902.765,130102.769,,white
,Trial,flow.Sequence,3_45_0,2022-03-01T09:02:51.156Z,,,,1,VA,2156.041000023848,completion,,,,130096.90000003576,130092.10000002384,127919.392,127935.30000001192,127936.059,130102.769,,white
,Frame,canvas.Frame,3_45,2022-03-01T09:02:51.156Z,,,,1,VA,2160.841000035769,,,,,130097.10000002384,130096.90000003576,127919.392,127934.30000001192,127936.059,130102.769,,white
,Fixation,canvas.Screen,3_46_0_0,2022-03-01T09:02:53.164Z,,,,1,A,2016.7069999999949,timeout,,,,132105.60000002384,132102.809,130086.102,130098.30000001192,130102.769,132119.476,,grey
,Stimulus,canvas.Screen,3_46_0_1,2022-03-01T09:02:53.264Z,,,,1,A,100.00200000000768,timeout,,,,132205.10000002384,132202.811,132102.809,132105.90000003576,132119.476,132219.478,,grey
,Reaction,canvas.Screen,3_46_0_2,2022-03-01T09:02:53.560Z,,,,1,A,279.32200001191813,response,,stim_detected,keydown(Space),132501.5,132498.80000001192,132202.811,132205.19999998808,132219.478,132502.817,,grey
,Trial,flow.Sequence,3_46_0,2022-03-01T09:02:53.561Z,,,,1,A,2396.0310000119207,completion,,,,132501.69999998808,132498.80000001192,130086.102,130098.19999998808,130102.769,132502.817,,grey
,Frame,canvas.Frame,3_46,2022-03-01T09:02:53.561Z,,,,1,A,2399.0310000119207,,,,,132501.90000003576,132501.80000001192,130086.102,130097.19999998808,130102.769,132502.817,,grey
,Fixation,canvas.Screen,3_47_0_0,2022-03-01T09:02:55.396Z,,,,1,A,1850.036999999982,timeout,,,,134337.40000003576,134336.187,132486.15,132502.5,132502.817,134352.854,,grey
,Stimulus,canvas.Screen,3_47_0_1,2022-03-01T09:02:55.498Z,,,,1,A,100.00200000000768,timeout,,,,134438.80000001192,134436.189,134336.187,134337.69999998808,134352.854,134452.856,,grey
,Reaction,canvas.Screen,3_47_0_2,2022-03-01T09:02:55.721Z,,,,1,A,204.8439999880793,response,,stim_detected,keydown(Space),134662.19999998808,134657.69999998808,134436.189,134439,134452.856,134669.527,,grey
,Trial,flow.Sequence,3_47_0,2022-03-01T09:02:55.721Z,,,,1,A,2154.882999988069,completion,,,,134662.5,134657.69999998808,132486.15,132502.40000003576,132502.817,134669.527,,grey
,Frame,canvas.Frame,3_47,2022-03-01T09:02:55.721Z,,,,1,A,2159.783000023832,,,,,134662.60000002384,134662.60000002384,132486.15,132501.90000003576,132502.817,134669.527,,grey
,Fixation,canvas.Screen,3_48_0_0,2022-03-01T09:02:57.914Z,,,,0,V,2200.0439999999944,timeout,,,,136855.40000003576,136852.904,134652.86,134663.69999998808,134669.527,136869.571,,white
,Stimulus,canvas.Screen,3_48_0_1,2022-03-01T09:02:58.014Z,,,,0,V,100.00200000000768,timeout,,,,136955.19999998808,136952.906,136852.904,136855.69999998808,136869.571,136969.573,,white
,Reaction,canvas.Screen,3_48_0_2,2022-03-01T09:02:58.313Z,,,,0,V,280.1269999880751,response,,stim_detected,keydown(Space),137254.40000003576,137249.69999998808,136952.906,136955.40000003576,136969.573,137269.579,,white
,Trial,flow.Sequence,3_48_0,2022-03-01T09:02:58.314Z,,,,0,V,2580.172999988077,completion,,,,137254.69999998808,137249.69999998808,134652.86,134663.69999998808,134669.527,137269.579,,white
,Frame,canvas.Frame,3_48,2022-03-01T09:02:58.314Z,,,,0,V,2585.172999988077,,,,,137254.90000003576,137254.69999998808,134652.86,134662.80000001192,134669.527,137269.579,,white
,Fixation,canvas.Screen,3_49_0_0,2022-03-01T09:03:00.631Z,,,,1,A,2316.712999999989,timeout,,,,139571.69999998808,139569.625,137252.912,137256.19999998808,137269.579,139586.292,,grey
,Stimulus,canvas.Screen,3_49_0_1,2022-03-01T09:03:00.731Z,,,,1,A,100.00200000000768,timeout,,,,139672,139669.627,139569.625,139571.90000003576,139586.292,139686.294,,grey
,Reaction,canvas.Screen,3_49_0_2,2022-03-01T09:03:01.059Z,,,,1,A,309.2060000000056,response,,stim_detected,keydown(Space),140000.69999998808,139995.5,139669.627,139672.19999998808,139686.294,140002.967,,grey
,Trial,flow.Sequence,3_49_0,2022-03-01T09:03:01.060Z,,,,1,A,2725.921000000002,completion,,,,140001.30000001192,139995.5,137252.912,137256.19999998808,137269.579,140002.967,,grey
,Frame,canvas.Frame,3_49,2022-03-01T09:03:01.060Z,,,,1,A,2731.821000035765,,,,,140001.5,140001.40000003576,137252.912,137255.30000001192,137269.579,140002.967,,grey
,Fixation,canvas.Screen,3_50_0_0,2022-03-01T09:03:02.714Z,,,,1,VA,1666.6999999999825,timeout,,,,141655.5,141653,139986.3,140002.60000002384,140002.967,141669.667,,white
,Stimulus,canvas.Screen,3_50_0_1,2022-03-01T09:03:02.814Z,,,,1,VA,100.00200000000768,timeout,,,,141754.80000001192,141753.002,141653,141655.69999998808,141669.667,141769.669,,white
,Reaction,canvas.Screen,3_50_0_2,2022-03-01T09:03:03.037Z,,,,1,VA,203.73100003576837,response,,stim_detected,keydown(Space),141977.80000001192,141973.40000003576,141753.002,141754.90000003576,141769.669,141986.34,,white
,Trial,flow.Sequence,3_50_0,2022-03-01T09:03:03.037Z,,,,1,VA,1970.4330000357586,completion,,,,141978.19999998808,141973.40000003576,139986.3,140002.5,140002.967,141986.34,,white
,Frame,canvas.Frame,3_50,2022-03-01T09:03:03.037Z,,,,1,VA,1975.3330000119167,,,,,141978.30000001192,141978.30000001192,139986.3,140001.60000002384,140002.967,141986.34,,white
,Fixation,canvas.Screen,3_51_0_0,2022-03-01T09:03:05.048Z,,,,1,VA,2016.7069999999949,timeout,,,,143988.80000001192,143986.38,141969.673,141979.40000003576,141986.34,144003.047,,white
,Stimulus,canvas.Screen,3_51_0_1,2022-03-01T09:03:05.147Z,,,,1,VA,100.00200000000768,timeout,,,,144088.5,144086.382,143986.38,143989,144003.047,144103.049,,white
,Reaction,canvas.Screen,3_51_0_2,2022-03-01T09:03:05.357Z,,,,1,VA,190.25100001192186,response,,stim_detected,keydown(Space),144297.80000001192,144293.30000001192,144086.382,144088.60000002384,144103.049,144303.053,,white
,Trial,flow.Sequence,3_51_0,2022-03-01T09:03:05.357Z,,,,1,VA,2306.9600000119244,completion,,,,144298.10000002384,144293.30000001192,141969.673,141979.30000001192,141986.34,144303.053,,white
,Frame,canvas.Frame,3_51,2022-03-01T09:03:05.357Z,,,,1,VA,2311.7600000238454,,,,,144298.19999998808,144298.10000002384,141969.673,141978.40000003576,141986.34,144303.053,,white
,Fixation,canvas.Screen,3_52_0_0,2022-03-01T09:03:07.514Z,,,,0,V,2183.3769999999786,timeout,,,,146455.30000001192,146453.096,144286.386,144299.30000001192,144303.053,146486.43,,white
,Stimulus,canvas.Screen,3_52_0_1,2022-03-01T09:03:07.631Z,,,,0,V,100.00200000000768,timeout,,,,146571.69999998808,146569.765,146453.096,146455.5,146486.43,146586.432,,white
,Reaction,canvas.Screen,3_52_0_2,2022-03-01T09:03:07.835Z,,,,0,V,184.76799998807837,response,,stim_detected,keydown(Space),146775.69999998808,146771.19999998808,146569.765,146572.30000001192,146586.432,146786.436,,white
,Trial,flow.Sequence,3_52_0,2022-03-01T09:03:07.835Z,,,,0,V,2468.1469999880646,completion,,,,146776,146771.19999998808,144286.386,144299.19999998808,144303.053,146786.436,,white
,Frame,canvas.Frame,3_52,2022-03-01T09:03:07.835Z,,,,0,V,2473.0470000238274,,,,,146776.30000001192,146776.10000002384,144286.386,144298.30000001192,144303.053,146786.436,,white
,Fixation,canvas.Screen,3_53_0_0,2022-03-01T09:03:10.047Z,,,,1,A,2216.7110000000102,timeout,,,,148987.90000003576,148986.48,146769.769,146777.30000001192,146786.436,149003.147,,grey
,Stimulus,canvas.Screen,3_53_0_1,2022-03-01T09:03:10.147Z,,,,1,A,100.00200000000768,timeout,,,,149087.69999998808,149086.482,148986.48,148988.19999998808,149003.147,149103.149,,grey
,Reaction,canvas.Screen,3_53_0_2,2022-03-01T09:03:10.386Z,,,,1,A,218.7510000357579,response,,stim_detected,keydown(Space),149326.60000002384,149321.90000003576,149086.482,149087.80000001192,149103.149,149336.487,,grey
,Trial,flow.Sequence,3_53_0,2022-03-01T09:03:10.386Z,,,,1,A,2535.464000035776,completion,,,,149326.90000003576,149321.90000003576,146769.769,146777.30000001192,146786.436,149336.487,,grey
,Frame,canvas.Frame,3_53,2022-03-01T09:03:10.386Z,,,,1,A,2540.664000023855,,,,,149327.19999998808,149327.10000002384,146769.769,146776.40000003576,146786.436,149336.487,,grey
,Fixation,canvas.Screen,3_54_0_0,2022-03-01T09:03:12.665Z,,,,1,A,2283.3790000000154,timeout,,,,151605.80000001192,151603.199,149319.82,149328.19999998808,149336.487,151619.866,,grey
,Stimulus,canvas.Screen,3_54_0_1,2022-03-01T09:03:12.764Z,,,,1,A,100.00199999997858,timeout,,,,151704.60000002384,151703.201,151603.199,151606.10000002384,151619.866,151719.868,,grey
,Reaction,canvas.Screen,3_54_0_2,2022-03-01T09:03:13.022Z,,,,1,A,238.93200001193327,response,,stim_detected,keydown(Space),151963.30000001192,151958.80000001192,151703.201,151704.80000001192,151719.868,151969.873,,grey
,Trial,flow.Sequence,3_54_0,2022-03-01T09:03:13.023Z,,,,1,A,2622.313000011927,completion,,,,151963.69999998808,151958.80000001192,149319.82,149328.10000002384,149336.487,151969.873,,grey
,Frame,canvas.Frame,3_54,2022-03-01T09:03:13.023Z,,,,1,A,2627.2129999880854,,,,,151963.90000003576,151963.69999998808,149319.82,149327.30000001192,149336.487,151969.873,,grey
,Fixation,canvas.Screen,3_55_0_0,2022-03-01T09:03:15.248Z,,,,1,VA,2233.377999999997,timeout,,,,154189,154186.584,151953.206,151965.40000003576,151969.873,154203.251,,white
,Stimulus,canvas.Screen,3_55_0_1,2022-03-01T09:03:15.348Z,,,,1,VA,100.00200000000768,timeout,,,,154288.90000003576,154286.586,154186.584,154189.30000001192,154203.251,154303.253,,white
,Reaction,canvas.Screen,3_55_0_2,2022-03-01T09:03:15.550Z,,,,1,VA,183.34700002384488,response,,stim_detected,keydown(Space),154491.19999998808,154486.60000002384,154286.586,154289.10000002384,154303.253,154503.257,,white
,Trial,flow.Sequence,3_55_0,2022-03-01T09:03:15.551Z,,,,1,VA,2516.7270000238495,completion,,,,154491.5,154486.60000002384,151953.206,151965.30000001192,151969.873,154503.257,,white
,Frame,canvas.Frame,3_55,2022-03-01T09:03:15.551Z,,,,1,VA,2521.7270000238495,,,,,154491.69999998808,154491.60000002384,151953.206,151964,151969.873,154503.257,,white
,Fixation,canvas.Screen,3_56_0_0,2022-03-01T09:03:17.981Z,,,,1,VA,2433.3819999999832,timeout,,,,156922.19999998808,156919.972,154486.59,154492.69999998808,154503.257,156936.639,,white
,Stimulus,canvas.Screen,3_56_0_1,2022-03-01T09:03:18.082Z,,,,1,VA,100.00200000000768,timeout,,,,157023,157019.974,156919.972,156922.80000001192,156936.639,157036.641,,white
,Reaction,canvas.Screen,3_56_0_2,2022-03-01T09:03:18.267Z,,,,1,VA,166.9590000238386,response,,stim_detected,keydown(Space),157208,157203.60000002384,157019.974,157023.19999998808,157036.641,157219.978,,white
,Trial,flow.Sequence,3_56_0,2022-03-01T09:03:18.267Z,,,,1,VA,2700.3430000238295,completion,,,,157208.30000001192,157203.60000002384,154486.59,154492.69999998808,154503.257,157219.978,,white
,Frame,canvas.Frame,3_56,2022-03-01T09:03:18.268Z,,,,1,VA,2705.1430000357504,,,,,157208.5,157208.40000003576,154486.59,154491.80000001192,154503.257,157219.978,,white
,Fixation,canvas.Screen,3_57_0_0,2022-03-01T09:03:20.265Z,,,,1,VA,2016.7069999999949,timeout,,,,159205.69999998808,159203.351,157203.311,157209.5,157219.978,159236.685,,white
,Stimulus,canvas.Screen,3_57_0_1,2022-03-01T09:03:20.381Z,,,,1,VA,100.00200000000768,timeout,,,,159321.80000001192,159320.02,159203.351,159205.90000003576,159236.685,159336.687,,white
,Reaction,canvas.Screen,3_57_0_2,2022-03-01T09:03:20.577Z,,,,1,VA,176.61300001191557,response,,stim_detected,keydown(Space),159518.30000001192,159513.30000001192,159320.02,159322.10000002384,159336.687,159520.024,,white
,Trial,flow.Sequence,3_57_0,2022-03-01T09:03:20.578Z,,,,1,VA,2293.322000011918,completion,,,,159518.69999998808,159513.30000001192,157203.311,157209.40000003576,157219.978,159520.024,,white
,Frame,canvas.Frame,3_57,2022-03-01T09:03:20.578Z,,,,1,VA,2298.822000011918,,,,,159518.90000003576,159518.80000001192,157203.311,157208.60000002384,157219.978,159520.024,,white
,Fixation,canvas.Screen,3_58_0_0,2022-03-01T09:03:22.298Z,,,,1,A,1733.3679999999877,timeout,,,,161239.40000003576,161236.725,159503.357,159519.90000003576,159520.024,161253.392,,grey
,Stimulus,canvas.Screen,3_58_0_1,2022-03-01T09:03:22.397Z,,,,1,A,100.00200000000768,timeout,,,,161338.30000001192,161336.727,161236.725,161239.60000002384,161253.392,161353.394,,grey
,Reaction,canvas.Screen,3_58_0_2,2022-03-01T09:03:22.601Z,,,,1,A,184.00600003576255,response,,stim_detected,keydown(Space),161541.69999998808,161537.40000003576,161336.727,161338.5,161353.394,161553.398,,grey
,Trial,flow.Sequence,3_58_0,2022-03-01T09:03:22.601Z,,,,1,A,2017.376000035758,completion,,,,161541.90000003576,161537.40000003576,159503.357,159519.80000001192,159520.024,161553.398,,grey
,Frame,canvas.Frame,3_58,2022-03-01T09:03:22.601Z,,,,1,A,2021.975999999995,,,,,161542,161542,159503.357,159519,159520.024,161553.398,,grey
,Fixation,canvas.Screen,3_59_0_0,2022-03-01T09:03:24.648Z,,,,0,V,2050.0410000000265,timeout,,,,163588.40000003576,163586.772,161536.731,161543.19999998808,161553.398,163603.439,,white
,Stimulus,canvas.Screen,3_59_0_1,2022-03-01T09:03:24.748Z,,,,0,V,100.00199999997858,timeout,,,,163689.30000001192,163686.774,163586.772,163588.69999998808,163603.439,163703.441,,white
,Reaction,canvas.Screen,3_59_0_2,2022-03-01T09:03:25.048Z,,,,0,V,280.75899998808745,response,,stim_detected,keydown(Space),163988.69999998808,163984.19999998808,163686.774,163689.40000003576,163703.441,164003.447,,white
,Trial,flow.Sequence,3_59_0,2022-03-01T09:03:25.048Z,,,,0,V,2430.8019999880926,completion,,,,163989,163984.19999998808,161536.731,161543.10000002384,161553.398,164003.447,,white
,Frame,canvas.Frame,3_59,2022-03-01T09:03:25.048Z,,,,0,V,2435.7020000238554,,,,,163989.19999998808,163989.10000002384,161536.731,161542.19999998808,161553.398,164003.447,,white
,Fixation,canvas.Screen,3_60_0_0,2022-03-01T09:03:26.964Z,,,,0,V,1916.7050000000163,timeout,,,,165904.80000001192,165903.485,163986.78,163990.19999998808,164003.447,165920.152,,white
,Stimulus,canvas.Screen,3_60_0_1,2022-03-01T09:03:27.065Z,,,,0,V,100.00200000000768,timeout,,,,166005.5,166003.487,165903.485,165904.90000003576,165920.152,166020.154,,white
,Reaction,canvas.Screen,3_60_0_2,2022-03-01T09:03:27.268Z,,,,0,V,184.84599999999045,response,,stim_detected,keydown(Space),166209.30000001192,166205,166003.487,166005.60000002384,166020.154,166236.825,,white
,Trial,flow.Sequence,3_60_0,2022-03-01T09:03:27.269Z,,,,0,V,2201.5530000000144,completion,,,,166209.5,166205,163986.78,163990.10000002384,164003.447,166236.825,,white
,Frame,canvas.Frame,3_60,2022-03-01T09:03:27.269Z,,,,0,V,2206.2529999880935,,,,,166209.80000001192,166209.69999998808,163986.78,163989.30000001192,164003.447,166236.825,,white
,Fixation,canvas.Screen,3_61_0_0,2022-03-01T09:03:29.732Z,,,,0,V,2450.048999999999,timeout,,,,168672.5,168670.207,166203.491,166210.80000001192,166236.825,168686.874,,white
,Stimulus,canvas.Screen,3_61_0_1,2022-03-01T09:03:29.831Z,,,,0,V,100.00199999997858,timeout,,,,168772.30000001192,168770.209,168670.207,168672.69999998808,168686.874,168786.876,,white
,Reaction,canvas.Screen,3_61_0_2,2022-03-01T09:03:30.005Z,,,,0,V,155.0240000357735,response,,stim_detected,keydown(Space),168946.30000001192,168941.90000003576,168770.209,168772.5,168786.876,168953.546,,white
,Trial,flow.Sequence,3_61_0,2022-03-01T09:03:30.006Z,,,,0,V,2705.075000035751,completion,,,,168946.5,168941.90000003576,166203.491,166210.69999998808,166236.825,168953.546,,white
,Frame,canvas.Frame,3_61,2022-03-01T09:03:30.006Z,,,,0,V,2709.8749999880674,,,,,168946.69999998808,168946.69999998808,166203.491,166209.80000001192,166236.825,168953.546,,white
,Fixation,canvas.Screen,3_62_0_0,2022-03-01T09:03:31.647Z,,,,0,V,1650.0329999999958,timeout,,,,170588,170586.912,168936.879,168947.80000001192,168953.546,170603.579,,white
,Stimulus,canvas.Screen,3_62_0_1,2022-03-01T09:03:31.747Z,,,,0,V,100.00200000000768,timeout,,,,170688.10000002384,170686.914,170586.912,170588.19999998808,170603.579,170703.581,,white
,Reaction,canvas.Screen,3_62_0_2,2022-03-01T09:03:31.940Z,,,,0,V,172.21900001191534,response,,stim_detected,keydown(Space),170880.40000003576,170875.80000001192,170686.914,170688.30000001192,170703.581,170886.918,,white
,Trial,flow.Sequence,3_62_0,2022-03-01T09:03:31.940Z,,,,0,V,1922.2540000119188,completion,,,,170880.69999998808,170875.80000001192,168936.879,168947.69999998808,168953.546,170886.918,,white
,Frame,canvas.Frame,3_62,2022-03-01T09:03:31.940Z,,,,0,V,1927.153999988077,,,,,170880.90000003576,170880.69999998808,168936.879,168946.90000003576,168953.546,170886.918,,white
,Fixation,canvas.Screen,3_63_0_0,2022-03-01T09:03:33.765Z,,,,1,A,1833.3699999999953,timeout,,,,172705.69999998808,172703.621,170870.251,170881.90000003576,170886.918,172720.288,,grey
,Stimulus,canvas.Screen,3_63_0_1,2022-03-01T09:03:33.865Z,,,,1,A,100.00200000000768,timeout,,,,172805.30000001192,172803.623,172703.621,172705.90000003576,172720.288,172820.29,,grey
,Reaction,canvas.Screen,3_63_0_2,2022-03-01T09:03:33.871Z,,,,1,A,1.0769999880867545,response,,stim_detected,keydown(Space),172811.60000002384,172804.69999998808,172803.623,172805.60000002384,,172836.957,,grey
,Trial,flow.Sequence,3_63_0,2022-03-01T09:03:33.871Z,,,,1,A,1917.781999988074,completion,,,,172811.90000003576,172804.69999998808,170870.251,170881.80000001192,170886.918,172836.957,,grey
,Frame,canvas.Frame,3_63,2022-03-01T09:03:33.871Z,,,,1,A,1925.0819999999949,,,,,172812,172812,170870.251,170881,170886.918,172836.957,,grey
,Fixation,canvas.Screen,3_64_0_0,2022-03-01T09:03:35.732Z,,,,1,VA,1850.0370000000112,timeout,,,,174672.5,174670.327,172820.29,172813.30000001192,172836.957,174686.994,,white
,Stimulus,canvas.Screen,3_64_0_1,2022-03-01T09:03:35.832Z,,,,1,VA,100.00200000000768,timeout,,,,174772.60000002384,174770.329,174670.327,174672.80000001192,174686.994,174786.996,,white
,Reaction,canvas.Screen,3_64_0_2,2022-03-01T09:03:36.022Z,,,,1,VA,171.50399999998626,response,,stim_detected,keydown(Space),174963,174958.5,174770.329,174772.69999998808,174786.996,174970.333,,white
,Trial,flow.Sequence,3_64_0,2022-03-01T09:03:36.023Z,,,,1,VA,2121.543000000005,completion,,,,174963.30000001192,174958.5,172820.29,172813.19999998808,172836.957,174970.333,,white
,Frame,canvas.Frame,3_64,2022-03-01T09:03:36.023Z,,,,1,VA,2126.443000035768,,,,,174963.5,174963.40000003576,172820.29,172812.19999998808,172836.957,174970.333,,white
,Fixation,canvas.Screen,3_65_0_0,2022-03-01T09:03:37.782Z,,,,1,VA,1766.7019999999902,timeout,,,,176722.5,176720.368,174953.666,174964.60000002384,174970.333,176737.035,,white
,Stimulus,canvas.Screen,3_65_0_1,2022-03-01T09:03:37.882Z,,,,1,VA,100.00200000000768,timeout,,,,176822.80000001192,176820.37,176720.368,176722.60000002384,176737.035,176837.037,,white
,Reaction,canvas.Screen,3_65_0_2,2022-03-01T09:03:38.059Z,,,,1,VA,158.46299999998882,response,,stim_detected,keydown(Space),176999.80000001192,176995.5,176820.37,176823.10000002384,176837.037,177003.707,,white
,Trial,flow.Sequence,3_65_0,2022-03-01T09:03:38.059Z,,,,1,VA,2025.1669999999867,completion,,,,177000.10000002384,176995.5,174953.666,174964.5,174970.333,177003.707,,white
,Frame,canvas.Frame,3_65,2022-03-01T09:03:38.060Z,,,,1,VA,2029.7670000238286,,,,,177000.30000001192,177000.10000002384,174953.666,174963.60000002384,174970.333,177003.707,,white
,Fixation,canvas.Screen,3_66_0_0,2022-03-01T09:03:39.582Z,,,,0,V,1533.3640000000014,timeout,,,,178522.40000003576,178520.404,176987.04,177001.30000001192,177003.707,178537.071,,white
,Stimulus,canvas.Screen,3_66_0_1,2022-03-01T09:03:39.682Z,,,,0,V,100.00200000000768,timeout,,,,178622.60000002384,178620.406,178520.404,178522.60000002384,178537.071,178637.073,,white
,Reaction,canvas.Screen,3_66_0_2,2022-03-01T09:03:39.872Z,,,,0,V,171.32700003575883,response,,stim_detected,keydown(Space),178812.90000003576,178808.40000003576,178620.406,178622.80000001192,178637.073,178820.41,,white
,Trial,flow.Sequence,3_66_0,2022-03-01T09:03:39.872Z,,,,0,V,1804.693000035768,completion,,,,178813.19999998808,178808.40000003576,176987.04,177001.30000001192,177003.707,178820.41,,white
,Frame,canvas.Frame,3_66,2022-03-01T09:03:39.873Z,,,,0,V,1809.593000011926,,,,,178813.40000003576,178813.30000001192,176987.04,177000.40000003576,177003.707,178820.41,,white
,Fixation,canvas.Screen,3_67_0_0,2022-03-01T09:03:42.265Z,,,,1,A,2400.04800000001,timeout,,,,181205.80000001192,181203.791,178803.743,178814.40000003576,178820.41,181220.458,,grey
,Stimulus,canvas.Screen,3_67_0_1,2022-03-01T09:03:42.365Z,,,,1,A,100.00199999997858,timeout,,,,181306,181303.793,181203.791,181206,181220.458,181320.46,,grey
,Reaction,canvas.Screen,3_67_0_2,2022-03-01T09:03:42.578Z,,,,1,A,192.73999998808722,response,,stim_detected,keydown(Space),181518.19999998808,181513.19999998808,181303.793,181306.10000002384,181320.46,181537.131,,grey
,Trial,flow.Sequence,3_67_0,2022-03-01T09:03:42.578Z,,,,1,A,2692.7899999880756,completion,,,,181518.60000002384,181513.19999998808,178803.743,178814.30000001192,178820.41,181537.131,,grey
,Frame,canvas.Frame,3_67,2022-03-01T09:03:42.578Z,,,,1,A,2698.2899999880756,,,,,181518.80000001192,181518.69999998808,178803.743,178813.5,178820.41,181537.131,,grey
,Fixation,canvas.Screen,3_68_0_0,2022-03-01T09:03:45.065Z,,,,1,A,2483.3830000000016,timeout,,,,184005.60000002384,184003.847,181503.797,181519.90000003576,181537.131,184020.514,,grey
,Stimulus,canvas.Screen,3_68_0_1,2022-03-01T09:03:45.166Z,,,,1,A,100.00200000000768,timeout,,,,184106.60000002384,184103.849,184003.847,184005.90000003576,184020.514,184120.516,,grey
,Reaction,canvas.Screen,3_68_0_2,2022-03-01T09:03:45.390Z,,,,1,A,205.5840000238386,response,,stim_detected,keydown(Space),184330.69999998808,184326.10000002384,184103.849,184106.80000001192,184120.516,184337.187,,grey
,Trial,flow.Sequence,3_68_0,2022-03-01T09:03:45.390Z,,,,1,A,2788.969000023848,completion,,,,184331,184326.10000002384,181503.797,181519.80000001192,181537.131,184337.187,,grey
,Frame,canvas.Frame,3_68,2022-03-01T09:03:45.391Z,,,,1,A,2793.969000023848,,,,,184331.30000001192,184331.10000002384,181503.797,181518.80000001192,181537.131,184337.187,,grey
,Fixation,canvas.Screen,3_69_0_0,2022-03-01T09:03:47.349Z,,,,0,V,1966.7060000000056,timeout,,,,186289.5,186287.226,184320.52,184332.30000001192,184337.187,186303.893,,white
,Stimulus,canvas.Screen,3_69_0_1,2022-03-01T09:03:47.448Z,,,,0,V,100.00199999997858,timeout,,,,186388.90000003576,186387.228,186287.226,186289.69999998808,186303.893,186403.895,,white
,Reaction,canvas.Screen,3_69_0_2,2022-03-01T09:03:47.675Z,,,,0,V,207.00500003577326,response,,stim_detected,keydown(Space),186615.30000001192,186610.90000003576,186387.228,186389.10000002384,186403.895,186620.566,,white
,Trial,flow.Sequence,3_69_0,2022-03-01T09:03:47.675Z,,,,0,V,2273.7130000357574,completion,,,,186615.5,186610.90000003576,184320.52,184332.19999998808,184337.187,186620.566,,white
,Frame,canvas.Frame,3_69,2022-03-01T09:03:47.675Z,,,,0,V,2278.4130000238365,,,,,186615.69999998808,186615.60000002384,184320.52,184331.40000003576,184337.187,186620.566,,white
,Fixation,canvas.Screen,3_70_0_0,2022-03-01T09:03:49.399Z,,,,1,A,1733.3680000000168,timeout,,,,188339.69999998808,188337.267,186603.899,186616.69999998808,186620.566,188353.934,,grey
,Stimulus,canvas.Screen,3_70_0_1,2022-03-01T09:03:49.499Z,,,,1,A,100.00199999997858,timeout,,,,188439.40000003576,188437.269,188337.267,188339.80000001192,188353.934,188453.936,,grey
,Reaction,canvas.Screen,3_70_0_2,2022-03-01T09:03:49.766Z,,,,1,A,247.7639999880921,response,,stim_detected,keydown(Space),188706.10000002384,188701.69999998808,188437.269,188439.69999998808,188453.936,188720.608,,grey
,Trial,flow.Sequence,3_70_0,2022-03-01T09:03:49.766Z,,,,1,A,2081.1339999880875,completion,,,,188706.5,188701.69999998808,186603.899,186616.60000002384,186620.566,188720.608,,grey
,Frame,canvas.Frame,3_70,2022-03-01T09:03:49.767Z,,,,1,A,2086.5340000238502,,,,,188707.30000001192,188707.10000002384,186603.899,186615.80000001192,186620.566,188720.608,,grey
,Fixation,canvas.Screen,3_71_0_0,2022-03-01T09:03:51.964Z,,,,1,A,2200.0439999999944,timeout,,,,190905,190903.985,188703.941,188708.40000003576,188720.608,190920.652,,grey
,Stimulus,canvas.Screen,3_71_0_1,2022-03-01T09:03:52.066Z,,,,1,A,100.00200000000768,timeout,,,,191006.40000003576,191003.987,190903.985,190905.19999998808,190920.652,191020.654,,grey
,Reaction,canvas.Screen,3_71_0_2,2022-03-01T09:03:52.283Z,,,,1,A,198.14600001191138,response,,stim_detected,keydown(Space),191223.19999998808,191218.80000001192,191003.987,191006.69999998808,191020.654,191237.325,,grey
,Trial,flow.Sequence,3_71_0,2022-03-01T09:03:52.283Z,,,,1,A,2498.1920000119135,completion,,,,191223.5,191218.80000001192,188703.941,188708.19999998808,188720.608,191237.325,,grey
,Frame,canvas.Frame,3_71,2022-03-01T09:03:52.283Z,,,,1,A,2502.9920000238344,,,,,191223.60000002384,191223.60000002384,188703.941,188707.30000001192,188720.608,191237.325,,grey
,Fixation,canvas.Screen,3_72_0_0,2022-03-01T09:03:53.816Z,,,,1,A,1533.3640000000014,timeout,,,,192756.69999998808,192754.022,191220.658,191225.69999998808,191237.325,192770.689,,grey
,Stimulus,canvas.Screen,3_72_0_1,2022-03-01T09:03:53.916Z,,,,1,A,100.00199999997858,timeout,,,,192856.5,192854.024,192754.022,192756.90000003576,192770.689,192870.691,,grey
,Reaction,canvas.Screen,3_72_0_2,2022-03-01T09:03:54.197Z,,,,1,A,262.00899998808745,response,,stim_detected,keydown(Space),193137.5,193132.69999998808,192854.024,192856.69999998808,192870.691,193154.03,,grey
,Trial,flow.Sequence,3_72_0,2022-03-01T09:03:54.197Z,,,,1,A,1895.3749999880674,completion,,,,193137.80000001192,193132.69999998808,191220.658,191225.5,191237.325,193154.03,,grey
,Frame,canvas.Frame,3_72,2022-03-01T09:03:54.197Z,,,,1,A,1900.4750000119093,,,,,193138,193137.80000001192,191220.658,191223.80000001192,191237.325,193154.03,,grey
,Fixation,canvas.Screen,3_73_0_0,2022-03-01T09:03:56.032Z,,,,1,A,1833.3699999999953,timeout,,,,194972.80000001192,194970.733,193137.363,193139,193154.03,194987.4,,grey
,Stimulus,canvas.Screen,3_73_0_1,2022-03-01T09:03:56.132Z,,,,1,A,100.00200000000768,timeout,,,,195072.10000002384,195070.735,194970.733,194973,194987.4,195087.402,,grey
,Reaction,canvas.Screen,3_73_0_2,2022-03-01T09:03:56.366Z,,,,1,A,214.99800003576092,response,,stim_detected,keydown(Space),195306.90000003576,195302.40000003576,195070.735,195072.30000001192,195087.402,195320.74,,grey
,Trial,flow.Sequence,3_73_0,2022-03-01T09:03:56.367Z,,,,1,A,2148.370000035764,completion,,,,195307.19999998808,195302.40000003576,193137.363,193138.90000003576,193154.03,195320.74,,grey
,Frame,canvas.Frame,3_73,2022-03-01T09:03:56.367Z,,,,1,A,2153.270000011922,,,,,195307.5,195307.30000001192,193137.363,193138,193154.03,195320.74,,grey
,Fixation,canvas.Screen,3_74_0_0,2022-03-01T09:03:58.799Z,,,,1,VA,2433.3820000000123,timeout,,,,197739.80000001192,197737.455,195304.073,195308.60000002384,195320.74,197754.122,,white
,Stimulus,canvas.Screen,3_74_0_1,2022-03-01T09:03:58.900Z,,,,1,VA,100.00200000000768,timeout,,,,197840.30000001192,197837.457,197737.455,197740,197754.122,197854.124,,white
,Reaction,canvas.Screen,3_74_0_2,2022-03-01T09:03:59.097Z,,,,1,VA,179.17600001191022,response,,stim_detected,keydown(Space),198037.90000003576,198033.30000001192,197837.457,197840.5,197854.124,198054.128,,white
,Trial,flow.Sequence,3_74_0,2022-03-01T09:03:59.098Z,,,,1,VA,2712.5600000119302,completion,,,,198038.19999998808,198033.30000001192,195304.073,195308.5,195320.74,198054.128,,white
,Frame,canvas.Frame,3_74,2022-03-01T09:03:59.098Z,,,,1,VA,2717.5600000119302,,,,,198038.40000003576,198038.30000001192,195304.073,195307.5,195320.74,198054.128,,white
,Fixation,canvas.Screen,3_75_0_0,2022-03-01T09:04:00.966Z,,,,0,V,1866.703999999998,timeout,,,,199906.40000003576,199904.165,198037.461,198039.40000003576,198054.128,199920.832,,white
,Stimulus,canvas.Screen,3_75_0_1,2022-03-01T09:04:01.065Z,,,,0,V,100.00200000000768,timeout,,,,200005.80000001192,200004.167,199904.165,199906.60000002384,199920.832,200020.834,,white
,Reaction,canvas.Screen,3_75_0_2,2022-03-01T09:04:01.253Z,,,,0,V,168.3659999880765,response,,stim_detected,keydown(Space),200193.80000001192,200189.19999998808,200004.167,200006.10000002384,200020.834,200204.171,,white
,Trial,flow.Sequence,3_75_0,2022-03-01T09:04:01.254Z,,,,0,V,2135.071999988082,completion,,,,200194.10000002384,200189.19999998808,198037.461,198039.30000001192,198054.128,200204.171,,white
,Frame,canvas.Frame,3_75,2022-03-01T09:04:01.254Z,,,,0,V,2140.071999988082,,,,,200194.30000001192,200194.19999998808,198037.461,198038.5,198054.128,200204.171,,white
,Fixation,canvas.Screen,3_76_0_0,2022-03-01T09:04:03.166Z,,,,1,A,1916.7049999999872,timeout,,,,202106.69999998808,202104.209,200187.504,200195.5,200204.171,202120.876,,grey
,Stimulus,canvas.Screen,3_76_0_1,2022-03-01T09:04:03.266Z,,,,1,A,100.00200000000768,timeout,,,,202206.80000001192,202204.211,202104.209,202106.90000003576,202120.876,202220.878,,grey
,Reaction,canvas.Screen,3_76_0_2,2022-03-01T09:04:03.481Z,,,,1,A,196.22200002384488,response,,stim_detected,keydown(Space),202421.60000002384,202417.10000002384,202204.211,202207,202220.878,202454.216,,grey
,Trial,flow.Sequence,3_76_0,2022-03-01T09:04:03.481Z,,,,1,A,2212.9290000238398,completion,,,,202421.80000001192,202417.10000002384,200187.504,200195.5,200204.171,202454.216,,grey
,Frame,canvas.Frame,3_76,2022-03-01T09:04:03.481Z,,,,1,A,2217.7290000357607,,,,,202422,202421.90000003576,200187.504,200194.40000003576,200204.171,202454.216,,grey
,Fixation,canvas.Screen,3_77_0_0,2022-03-01T09:04:05.183Z,,,,0,V,1683.3670000000275,timeout,,,,204123.5,204120.916,202437.549,202425.90000003576,202454.216,204137.583,,white
,Stimulus,canvas.Screen,3_77_0_1,2022-03-01T09:04:05.282Z,,,,0,V,100.00199999997858,timeout,,,,204223,204220.918,204120.916,204123.80000001192,204137.583,204237.585,,white
,Reaction,canvas.Screen,3_77_0_2,2022-03-01T09:04:05.520Z,,,,0,V,218.51500002385,response,,stim_detected,keydown(Space),204460.69999998808,204456.10000002384,204220.918,204223.19999998808,204237.585,204470.923,,white
,Trial,flow.Sequence,3_77_0,2022-03-01T09:04:05.521Z,,,,0,V,2001.884000023856,completion,,,,204461,204456.10000002384,202437.549,202425.80000001192,202454.216,204470.923,,white
,Frame,canvas.Frame,3_77,2022-03-01T09:04:05.521Z,,,,0,V,2006.884000023856,,,,,204461.19999998808,204461.10000002384,202437.549,202422.10000002384,202454.216,204470.923,,white
,Fixation,canvas.Screen,3_78_0_0,2022-03-01T09:04:07.567Z,,,,1,A,2050.0409999999974,timeout,,,,206507.10000002384,206504.297,204454.256,204462.19999998808,204470.923,206520.964,,grey
,Stimulus,canvas.Screen,3_78_0_1,2022-03-01T09:04:07.667Z,,,,1,A,100.00199999997858,timeout,,,,206607,206604.299,206504.297,206507.30000001192,206520.964,206620.966,,grey
,Reaction,canvas.Screen,3_78_0_2,2022-03-01T09:04:07.868Z,,,,1,A,182.934000035777,response,,stim_detected,keydown(Space),206808.69999998808,206803.90000003576,206604.299,206607.30000001192,206620.966,206820.97,,grey
,Trial,flow.Sequence,3_78_0,2022-03-01T09:04:07.869Z,,,,1,A,2332.977000035753,completion,,,,206808.90000003576,206803.90000003576,204454.256,204462.19999998808,204470.923,206820.97,,grey
,Frame,canvas.Frame,3_78,2022-03-01T09:04:07.869Z,,,,1,A,2338.177000023832,,,,,206809.10000002384,206809.10000002384,204454.256,204461.30000001192,204470.923,206820.97,,grey
,Fixation,canvas.Screen,3_79_0_0,2022-03-01T09:04:10.082Z,,,,1,A,2233.377999999997,timeout,,,,209022.5,209021.014,206804.303,206810.19999998808,206820.97,209054.348,,grey
,Stimulus,canvas.Screen,3_79_0_1,2022-03-01T09:04:10.200Z,,,,1,A,100.00200000000768,timeout,,,,209140.60000002384,209137.683,209021.014,209022.69999998808,209054.348,209154.35,,grey
,Reaction,canvas.Screen,3_79_0_2,2022-03-01T09:04:10.479Z,,,,1,A,260.34999998807325,response,,stim_detected,keydown(Space),209419.60000002384,209414.69999998808,209137.683,209140.80000001192,209154.35,209421.022,,grey
,Trial,flow.Sequence,3_79_0,2022-03-01T09:04:10.480Z,,,,1,A,2593.729999988078,completion,,,,209419.90000003576,209414.69999998808,206804.303,206810.19999998808,206820.97,209421.022,,grey
,Frame,canvas.Frame,3_79,2022-03-01T09:04:10.480Z,,,,1,A,2599.029999999999,,,,,209420.10000002384,209420,206804.303,206809.30000001192,206820.97,209421.022,,grey
,Fixation,canvas.Screen,3_80_0_0,2022-03-01T09:04:12.900Z,,,,1,A,2450.048999999999,timeout,,,,211840,211837.737,209404.355,209421.19999998808,209421.022,211871.071,,grey
,Stimulus,canvas.Screen,3_80_0_1,2022-03-01T09:04:13.016Z,,,,1,A,100.00200000000768,timeout,,,,211956.5,211954.406,211837.737,211840.19999998808,211871.071,211971.073,,grey
,Reaction,canvas.Screen,3_80_0_2,2022-03-01T09:04:13.292Z,,,,1,A,256.6269999880751,response,,stim_detected,keydown(Space),212232.5,212227.69999998808,211954.406,211956.69999998808,211971.073,212237.745,,grey
,Trial,flow.Sequence,3_80_0,2022-03-01T09:04:13.292Z,,,,1,A,2806.677999988082,completion,,,,212232.80000001192,212227.69999998808,209404.355,209421.19999998808,209421.022,212237.745,,grey
,Frame,canvas.Frame,3_80,2022-03-01T09:04:13.293Z,,,,1,A,2811.7780000119237,,,,,212233,212232.80000001192,209404.355,209420.30000001192,209421.022,212237.745,,grey
,Fixation,canvas.Screen,3_81_0_0,2022-03-01T09:04:15.683Z,,,,0,V,2400.04800000001,timeout,,,,214623.5,214621.126,212221.078,212234.10000002384,212237.745,214637.793,,white
,Stimulus,canvas.Screen,3_81_0_1,2022-03-01T09:04:15.784Z,,,,0,V,100.00200000000768,timeout,,,,214724,214721.128,214621.126,214623.69999998808,214637.793,214737.795,,white
,Reaction,canvas.Screen,3_81_0_2,2022-03-01T09:04:15.999Z,,,,0,V,196.50500001190812,response,,stim_detected,keydown(Space),214938.90000003576,214934.30000001192,214721.128,214724.19999998808,214737.795,214954.466,,white
,Trial,flow.Sequence,3_81_0,2022-03-01T09:04:15.999Z,,,,0,V,2696.5550000119256,completion,,,,214939.19999998808,214934.30000001192,212221.078,212234,212237.745,214954.466,,white
,Frame,canvas.Frame,3_81,2022-03-01T09:04:16.000Z,,,,0,V,2701.9549999880837,,,,,214939.90000003576,214939.69999998808,212221.078,212233.10000002384,212237.745,214954.466,,white
,Fixation,canvas.Screen,3_82_0_0,2022-03-01T09:04:18.500Z,,,,1,VA,2500.0500000000175,timeout,,,,217440.5,217437.849,214937.799,214941,214954.466,217454.516,,white
,Stimulus,canvas.Screen,3_82_0_1,2022-03-01T09:04:18.600Z,,,,1,VA,100.00200000000768,timeout,,,,217540.5,217537.851,217437.849,217440.60000002384,217454.516,217554.518,,white
,Reaction,canvas.Screen,3_82_0_2,2022-03-01T09:04:18.807Z,,,,1,VA,187.68199998806813,response,,stim_detected,keydown(Space),217747.40000003576,217742.19999998808,217537.851,217540.80000001192,217554.518,217754.522,,white
,Trial,flow.Sequence,3_82_0,2022-03-01T09:04:18.807Z,,,,1,VA,2787.7339999880933,completion,,,,217747.60000002384,217742.19999998808,214937.799,214941,214954.466,217754.522,,white
,Frame,canvas.Frame,3_82,2022-03-01T09:04:18.808Z,,,,1,VA,2793.334000011935,,,,,217747.90000003576,217747.80000001192,214937.799,214940.10000002384,214954.466,217754.522,,white
,Fixation,canvas.Screen,3_83_0_0,2022-03-01T09:04:20.616Z,,,,1,VA,1816.7030000000086,timeout,,,,219556.69999998808,219554.558,217737.855,217749.10000002384,217754.522,219571.225,,white
,Stimulus,canvas.Screen,3_83_0_1,2022-03-01T09:04:20.717Z,,,,1,VA,100.00200000000768,timeout,,,,219657.40000003576,219654.56,219554.558,219556.90000003576,219571.225,219671.227,,white
,Reaction,canvas.Screen,3_83_0_2,2022-03-01T09:04:20.927Z,,,,1,VA,191.97299998806557,response,,stim_detected,keydown(Space),219867.40000003576,219863.19999998808,219654.56,219657.69999998808,219671.227,219871.231,,white
,Trial,flow.Sequence,3_83_0,2022-03-01T09:04:20.928Z,,,,1,VA,2108.677999988082,completion,,,,219868,219863.19999998808,217737.855,217749,217754.522,219871.231,,white
,Frame,canvas.Frame,3_83,2022-03-01T09:04:20.928Z,,,,1,VA,2113.677999988082,,,,,219868.30000001192,219868.19999998808,217737.855,217748,217754.522,219871.231,,white
,Fixation,canvas.Screen,3_84_0_0,2022-03-01T09:04:23.283Z,,,,1,VA,2366.714000000007,timeout,,,,222223.40000003576,222221.278,219854.564,219869.40000003576,219871.231,222237.945,,white
,Stimulus,canvas.Screen,3_84_0_1,2022-03-01T09:04:23.384Z,,,,1,VA,100.00199999997858,timeout,,,,222324.60000002384,222321.28,222221.278,222223.69999998808,222237.945,222337.947,,white
,Reaction,canvas.Screen,3_84_0_2,2022-03-01T09:04:23.615Z,,,,1,VA,213.05300000001444,response,,stim_detected,keydown(Space),222555.69999998808,222551,222321.28,222324.80000001192,222337.947,222571.285,,white
,Trial,flow.Sequence,3_84_0,2022-03-01T09:04:23.616Z,,,,1,VA,2679.7690000000002,completion,,,,222556.10000002384,222551,219854.564,219869.30000001192,219871.231,222571.285,,white
,Frame,canvas.Frame,3_84,2022-03-01T09:04:23.616Z,,,,1,VA,2684.9689999880793,,,,,222556.30000001192,222556.19999998808,219854.564,219868.40000003576,219871.231,222571.285,,white
,Fixation,canvas.Screen,3_85_0_0,2022-03-01T09:04:25.517Z,,,,0,V,1900.0380000000005,timeout,,,,224457.5,224454.656,222554.618,222557.40000003576,222571.285,224471.323,,white
,Stimulus,canvas.Screen,3_85_0_1,2022-03-01T09:04:25.616Z,,,,0,V,100.00200000000768,timeout,,,,224556.10000002384,224554.658,224454.656,224457.80000001192,224471.323,224571.325,,white
,Reaction,canvas.Screen,3_85_0_2,2022-03-01T09:04:25.817Z,,,,0,V,181.57500003575115,response,,stim_detected,keydown(Space),224757.30000001192,224752.90000003576,224554.658,224556.30000001192,224571.325,224771.329,,white
,Trial,flow.Sequence,3_85_0,2022-03-01T09:04:25.817Z,,,,0,V,2181.6150000357593,completion,,,,224757.69999998808,224752.90000003576,222554.618,222557.30000001192,222571.285,224771.329,,white
,Frame,canvas.Frame,3_85,2022-03-01T09:04:25.818Z,,,,0,V,2186.5150000119174,,,,,224757.90000003576,224757.80000001192,222554.618,222556.40000003576,222571.285,224771.329,,white
,Fixation,canvas.Screen,3_86_0_0,2022-03-01T09:04:28.033Z,,,,1,VA,2216.7110000000102,timeout,,,,226973.30000001192,226971.373,224754.662,224759,224771.329,226988.04,,white
,Stimulus,canvas.Screen,3_86_0_1,2022-03-01T09:04:28.132Z,,,,1,VA,100.00199999997858,timeout,,,,227072.69999998808,227071.375,226971.373,226973.5,226988.04,227088.042,,white
,Reaction,canvas.Screen,3_86_0_2,2022-03-01T09:04:28.311Z,,,,1,VA,158.65799998809234,response,,stim_detected,keydown(Space),227251.19999998808,227246.69999998808,227071.375,227072.90000003576,227088.042,227254.712,,white
,Trial,flow.Sequence,3_86_0,2022-03-01T09:04:28.311Z,,,,1,VA,2475.370999988081,completion,,,,227251.5,227246.69999998808,224754.662,224758.90000003576,224771.329,227254.712,,white
,Frame,canvas.Frame,3_86,2022-03-01T09:04:28.311Z,,,,1,VA,2480.271000023844,,,,,227251.80000001192,227251.60000002384,224754.662,224758,224771.329,227254.712,,white
,Fixation,canvas.Screen,3_87_0_0,2022-03-01T09:04:30.617Z,,,,0,V,2316.712999999989,timeout,,,,229557.19999998808,229554.758,227238.045,227252.69999998808,227254.712,229571.425,,white
,Stimulus,canvas.Screen,3_87_0_1,2022-03-01T09:04:30.717Z,,,,0,V,100.00200000000768,timeout,,,,229657,229654.76,229554.758,229557.30000001192,229571.425,229671.427,,white
,Reaction,canvas.Screen,3_87_0_2,2022-03-01T09:04:30.963Z,,,,0,V,227.17300002384582,response,,stim_detected,keydown(Space),229903.10000002384,229898.60000002384,229654.76,229657.30000001192,229671.427,229904.765,,white
,Trial,flow.Sequence,3_87_0,2022-03-01T09:04:30.963Z,,,,0,V,2643.8880000238423,completion,,,,229903.40000003576,229898.60000002384,227238.045,227252.69999998808,227254.712,229904.765,,white
,Frame,canvas.Frame,3_87,2022-03-01T09:04:30.963Z,,,,0,V,2648.7880000000005,,,,,229903.69999998808,229903.5,227238.045,227251.90000003576,227254.712,229904.765,,white
,Fixation,canvas.Screen,3_88_0_0,2022-03-01T09:04:32.600Z,,,,1,A,1650.0329999999958,timeout,,,,231540.40000003576,231538.131,229888.098,229904.80000001192,229904.765,231554.798,,grey
,Stimulus,canvas.Screen,3_88_0_1,2022-03-01T09:04:32.699Z,,,,1,A,100.00199999997858,timeout,,,,231639.69999998808,231638.133,231538.131,231540.60000002384,231554.798,231654.8,,grey
,Reaction,canvas.Screen,3_88_0_2,2022-03-01T09:04:32.940Z,,,,1,A,221.50000001193257,response,,stim_detected,keydown(Space),231880.19999998808,231876.30000001192,231638.133,231639.90000003576,231654.8,231888.138,,grey
,Trial,flow.Sequence,3_88_0,2022-03-01T09:04:32.940Z,,,,1,A,1971.535000011907,completion,,,,231880.5,231876.30000001192,229888.098,229904.69999998808,229904.765,231888.138,,grey
,Frame,canvas.Frame,3_88,2022-03-01T09:04:32.940Z,,,,1,A,1975.835000023828,,,,,231880.60000002384,231880.60000002384,229888.098,229903.69999998808,229904.765,231888.138,,grey
,Fixation,canvas.Screen,3_89_0_0,2022-03-01T09:04:35.017Z,,,,1,VA,2083.375,timeout,,,,233957.19999998808,233954.846,231871.471,231881.40000003576,231888.138,233971.513,,white
,Stimulus,canvas.Screen,3_89_0_1,2022-03-01T09:04:35.117Z,,,,1,VA,100.00200000000768,timeout,,,,234056.80000001192,234054.848,233954.846,233957.30000001192,233971.513,234071.515,,white
,Reaction,canvas.Screen,3_89_0_2,2022-03-01T09:04:35.286Z,,,,1,VA,149.98499999998603,response,,stim_detected,keydown(Space),234225.90000003576,234221.5,234054.848,234057,234071.515,234238.185,,white
,Trial,flow.Sequence,3_89_0,2022-03-01T09:04:35.286Z,,,,1,VA,2333.3619999999937,completion,,,,234226.19999998808,234221.5,231871.471,231881.40000003576,231888.138,234238.185,,white
,Frame,canvas.Frame,3_89,2022-03-01T09:04:35.286Z,,,,1,VA,2338.1620000119146,,,,,234226.5,234226.30000001192,231871.471,231880.69999998808,231888.138,234238.185,,white
,Fixation,canvas.Screen,3_90_0_0,2022-03-01T09:04:37.182Z,,,,1,A,1900.0380000000005,timeout,,,,236122.60000002384,236121.556,234221.518,234227.40000003576,234238.185,236138.223,,grey
,Stimulus,canvas.Screen,3_90_0_1,2022-03-01T09:04:37.283Z,,,,1,A,100.00200000000768,timeout,,,,236223.40000003576,236221.558,236121.556,236122.80000001192,236138.223,236238.225,,grey
,Reaction,canvas.Screen,3_90_0_2,2022-03-01T09:04:37.521Z,,,,1,A,218.0750000119151,response,,stim_detected,keydown(Space),236460.69999998808,236456.30000001192,236221.558,236223.5,236238.225,236471.563,,grey
,Trial,flow.Sequence,3_90_0,2022-03-01T09:04:37.521Z,,,,1,A,2218.1150000119233,completion,,,,236461,236456.30000001192,234221.518,234227.40000003576,234238.185,236471.563,,grey
,Frame,canvas.Frame,3_90,2022-03-01T09:04:37.521Z,,,,1,A,2222.8150000000023,,,,,236461.19999998808,236461,234221.518,234226.5,234238.185,236471.563,,grey
,Fixation,canvas.Screen,3_91_0_0,2022-03-01T09:04:39.801Z,,,,1,A,2283.3790000000154,timeout,,,,238740.80000001192,238738.275,236454.896,236462.19999998808,236471.563,238754.942,,grey
,Stimulus,canvas.Screen,3_91_0_1,2022-03-01T09:04:39.900Z,,,,1,A,100.00199999997858,timeout,,,,238840.19999998808,238838.277,238738.275,238741,238754.942,238854.944,,grey
,Reaction,canvas.Screen,3_91_0_2,2022-03-01T09:04:40.101Z,,,,1,A,181.25599998809048,response,,stim_detected,keydown(Space),239041,239036.19999998808,238838.277,238840.30000001192,238854.944,239071.615,,grey
,Trial,flow.Sequence,3_91_0,2022-03-01T09:04:40.101Z,,,,1,A,2564.6369999880844,completion,,,,239041.30000001192,239036.19999998808,236454.896,236462.10000002384,236471.563,239071.615,,grey
,Frame,canvas.Frame,3_91,2022-03-01T09:04:40.101Z,,,,1,A,2569.837000035768,,,,,239041.40000003576,239041.40000003576,236454.896,236461.30000001192,236471.563,239071.615,,grey
,Fixation,canvas.Screen,3_92_0_0,2022-03-01T09:04:41.684Z,,,,1,A,1566.698000000004,timeout,,,,240623.80000001192,240621.646,239038.281,239042.40000003576,239071.615,240638.313,,grey
,Stimulus,canvas.Screen,3_92_0_1,2022-03-01T09:04:41.784Z,,,,1,A,100.00200000000768,timeout,,,,240724.30000001192,240721.648,240621.646,240624,240638.313,240738.315,,grey
,Reaction,canvas.Screen,3_92_0_2,2022-03-01T09:04:42.185Z,,,,1,A,382.6849999999977,response,,stim_detected,keydown(Space),241125.40000003576,241121,240721.648,240724.40000003576,240738.315,241138.323,,grey
,Trial,flow.Sequence,3_92_0,2022-03-01T09:04:42.186Z,,,,1,A,2049.3850000000093,completion,,,,241126,241121,239038.281,239042.40000003576,239071.615,241138.323,,grey
,Frame,canvas.Frame,3_92,2022-03-01T09:04:42.186Z,,,,1,A,2054.485000023851,,,,,241126.10000002384,241126.10000002384,239038.281,239041.60000002384,239071.615,241138.323,,grey
,Fixation,canvas.Screen,3_93_0_0,2022-03-01T09:04:43.817Z,,,,1,A,1633.366000000009,timeout,,,,242757.19999998808,242755.022,241121.656,241127.19999998808,241138.323,242771.689,,grey
,Stimulus,canvas.Screen,3_93_0_1,2022-03-01T09:04:43.917Z,,,,1,A,100.00199999997858,timeout,,,,242856.80000001192,242855.024,242755.022,242757.5,242771.689,242871.691,,grey
,Reaction,canvas.Screen,3_93_0_2,2022-03-01T09:04:44.190Z,,,,1,A,254.30900000000838,response,,stim_detected,keydown(Space),243130.30000001192,243126,242855.024,242857,242871.691,243138.363,,grey
,Trial,flow.Sequence,3_93_0,2022-03-01T09:04:44.190Z,,,,1,A,1987.676999999996,completion,,,,243130.69999998808,243126,241121.656,241127.10000002384,241138.323,243138.363,,grey
,Frame,canvas.Frame,3_93,2022-03-01T09:04:44.191Z,,,,1,A,1992.376999988075,,,,,243130.80000001192,243130.69999998808,241121.656,241126.30000001192,241138.323,243138.363,,grey
,Fixation,canvas.Screen,3_94_0_0,2022-03-01T09:04:46.451Z,,,,1,A,2266.7119999999995,timeout,,,,245390.69999998808,245388.408,243121.696,243131.80000001192,243138.363,245405.075,,grey
,Stimulus,canvas.Screen,3_94_0_1,2022-03-01T09:04:46.551Z,,,,1,A,100.00199999997858,timeout,,,,245491.30000001192,245488.41,245388.408,245390.80000001192,245405.075,245505.077,,grey
,Reaction,canvas.Screen,3_94_0_2,2022-03-01T09:04:46.753Z,,,,1,A,182.7230000119307,response,,stim_detected,keydown(Space),245692.80000001192,245687.80000001192,245488.41,245491.5,245505.077,245705.081,,grey
,Trial,flow.Sequence,3_94_0,2022-03-01T09:04:46.753Z,,,,1,A,2549.437000011909,completion,,,,245693.10000002384,245687.80000001192,243121.696,243131.80000001192,243138.363,245705.081,,grey
,Frame,canvas.Frame,3_94,2022-03-01T09:04:46.753Z,,,,1,A,2554.836999988067,,,,,245693.30000001192,245693.19999998808,243121.696,243130.90000003576,243138.363,245705.081,,grey
,Fixation,canvas.Screen,3_95_0_0,2022-03-01T09:04:48.368Z,,,,1,VA,1616.6989999999932,timeout,,,,247307.69999998808,247305.113,245688.414,245694.30000001192,245705.081,247321.78,,white
,Stimulus,canvas.Screen,3_95_0_1,2022-03-01T09:04:48.467Z,,,,1,VA,100.00200000000768,timeout,,,,247407.30000001192,247405.115,247305.113,247307.90000003576,247321.78,247421.782,,white
,Reaction,canvas.Screen,3_95_0_2,2022-03-01T09:04:48.672Z,,,,1,VA,185.91799998807255,response,,stim_detected,keydown(Space),247612.10000002384,247607.69999998808,247405.115,247407.5,247421.782,247621.786,,white
,Trial,flow.Sequence,3_95_0,2022-03-01T09:04:48.673Z,,,,1,VA,1902.6189999880735,completion,,,,247612.60000002384,247607.69999998808,245688.414,245694.19999998808,245705.081,247621.786,,white
,Frame,canvas.Frame,3_95,2022-03-01T09:04:48.673Z,,,,1,VA,1907.6189999880735,,,,,247612.69999998808,247612.69999998808,245688.414,245693.40000003576,245705.081,247621.786,,white
,Fixation,canvas.Screen,3_96_0_0,2022-03-01T09:04:50.718Z,,,,0,V,2050.0409999999974,timeout,,,,249657.80000001192,249655.16,247605.119,247613.80000001192,247621.786,249671.827,,white
,Stimulus,canvas.Screen,3_96_0_1,2022-03-01T09:04:50.817Z,,,,0,V,100.00200000000768,timeout,,,,249757.30000001192,249755.162,249655.16,249658.10000002384,249671.827,249771.829,,white
,Reaction,canvas.Screen,3_96_0_2,2022-03-01T09:04:51.072Z,,,,0,V,234.77100002384395,response,,stim_detected,keydown(Space),250011.69999998808,250006.60000002384,249755.162,249757.60000002384,249771.829,250021.834,,white
,Trial,flow.Sequence,3_96_0,2022-03-01T09:04:51.072Z,,,,0,V,2384.814000023849,completion,,,,250012.19999998808,250006.60000002384,247605.119,247613.69999998808,247621.786,250021.834,,white
,Frame,canvas.Frame,3_96,2022-03-01T09:04:51.072Z,,,,0,V,2390.514000011928,,,,,250012.40000003576,250012.30000001192,247605.119,247612.80000001192,247621.786,250021.834,,white
,Fixation,canvas.Screen,3_97_0_0,2022-03-01T09:04:52.634Z,,,,0,V,1566.698000000004,timeout,,,,251574.40000003576,251571.865,250005.167,250013.60000002384,250021.834,251588.532,,white
,Stimulus,canvas.Screen,3_97_0_1,2022-03-01T09:04:52.734Z,,,,0,V,100.00200000000768,timeout,,,,251674.40000003576,251671.867,251571.865,251574.80000001192,251588.532,251688.534,,white
,Reaction,canvas.Screen,3_97_0_2,2022-03-01T09:04:53.130Z,,,,0,V,376.9659999999858,response,,stim_detected,keydown(Space),252070,252065.5,251671.867,251674.5,251688.534,252071.875,,white
,Trial,flow.Sequence,3_97_0,2022-03-01T09:04:53.130Z,,,,0,V,2043.6659999999974,completion,,,,252070.30000001192,252065.5,250005.167,250013.5,250021.834,252071.875,,white
,Frame,canvas.Frame,3_97,2022-03-01T09:04:53.131Z,,,,0,V,2048.6659999999974,,,,,252070.5,252070.5,250005.167,250012.60000002384,250021.834,252071.875,,white
,Fixation,canvas.Screen,3_98_0_0,2022-03-01T09:04:54.867Z,,,,1,VA,1750.0350000000035,timeout,,,,253807.30000001192,253805.243,252055.208,252071.5,252071.875,253821.91,,white
,Stimulus,canvas.Screen,3_98_0_1,2022-03-01T09:04:54.968Z,,,,1,VA,100.00200000000768,timeout,,,,253907.80000001192,253905.245,253805.243,253807.60000002384,253821.91,253921.912,,white
,Reaction,canvas.Screen,3_98_0_2,2022-03-01T09:04:55.182Z,,,,1,VA,195.2879999880679,response,,stim_detected,keydown(Space),254121.5,254117.19999998808,253905.245,253908,253921.912,254138.583,,white
,Trial,flow.Sequence,3_98_0,2022-03-01T09:04:55.182Z,,,,1,VA,2045.324999988079,completion,,,,254121.80000001192,254117.19999998808,252055.208,252071.5,252071.875,254138.583,,white
,Frame,canvas.Frame,3_98,2022-03-01T09:04:55.182Z,,,,1,VA,2050.025000035763,,,,,254122.10000002384,254121.90000003576,252055.208,252070.60000002384,252071.875,254138.583,,white
,Fixation,canvas.Screen,3_99_0_0,2022-03-01T09:04:57.401Z,,,,1,VA,2216.710999999981,timeout,,,,256341.19999998808,256338.627,254121.916,254123.60000002384,254138.583,256355.294,,white
,Stimulus,canvas.Screen,3_99_0_1,2022-03-01T09:04:57.502Z,,,,1,VA,100.00200000000768,timeout,,,,256442.40000003576,256438.629,256338.627,256341.5,256355.294,256455.296,,white
,Reaction,canvas.Screen,3_99_0_2,2022-03-01T09:04:57.702Z,,,,1,VA,181.80400002383976,response,,stim_detected,keydown(Space),256641.60000002384,256637.10000002384,256438.629,256442.60000002384,256455.296,256671.967,,white
,Trial,flow.Sequence,3_99_0,2022-03-01T09:04:57.702Z,,,,1,VA,2498.5170000238286,completion,,,,256641.90000003576,256637.10000002384,254121.916,254123.5,254138.583,256671.967,,white
,Frame,canvas.Frame,3_99,2022-03-01T09:04:57.702Z,,,,1,VA,2503.4169999999867,,,,,256642.19999998808,256642,254121.916,254122.19999998808,254138.583,256671.967,,white
,Loop,flow.Loop,3,2022-03-01T09:04:57.703Z,,,,,,237208.111,completion,,,,256642.69999998808,256642,19417.222,19420.5,19433.889,256671.967,,
,end,html.Page,4,2022-03-01T09:05:00.107Z,,,,,,2374.532999999996,form submission,,,,259047.19999998808,259046.5,256655.3,256642.80000001192,256671.967,259055.348,,
,root,flow.Sequence,,2022-03-01T09:05:00.108Z,,,,,,257946.311,completion,,,,259048.30000001192,259046.5,1050.188,1085.9000000357628,1100.189,259055.348,,