id,sender,sender_type,sender_id,timestamp,meta,,age,aud,condition,duration,ended_on,gender,response,response_action,time_commit,time_end,time_render,time_run,time_show,time_switch,url,vis
Raleigh St. Clair,Hello,html.Page,0,2022-03-01T09:21:08.631Z,"{""labjs_version"":""20.2.4"",""labjs_build"":{""flavor"":""development"",""commit"":""f5b4a49f956347addd546a832a3327688c2c0fef""},""location"":""https://labjs.felixhenninger.com/api/labjs_preview/index.html"",""userAgent"":""Mozilla/5.0 (Macintosh; Intel Mac OS X 10_15_7) AppleWebKit/537.36 (KHTML, like Gecko) Chrome/98.0.4758.80 Safari/537.36"",""platform"":""MacIntel"",""language"":""de-DE"",""locale"":""de"",""timeZone"":""Europe/Berlin"",""timezoneOffset"":-60,""screen_width"":1440,""screen_height"":900,""scroll_width"":1440,""scroll_height"":708,""window_innerWidth"":1440,""window_innerHeight"":756,""devicePixelRatio"":1}",,58,,,64970.25100002384,form submission,male,,,66144.80000001192,66144.10000002384,1157.182,1140.800000011921,1173.849,66141.815,{},
,Instructions,html.Page,1,2022-03-01T09:21:10.349Z,,,,,,1720.4850000119186,form submission,,,,67863,67862.30000001192,66125.148,66145.30000001192,66141.815,67875.183,,
,Change Background,canvas.Screen,2,2022-03-01T09:21:13.347Z,,,,,,3000.0599999999977,timeout,,,,70860.60000002384,70858.576,67858.516,67863.30000001192,67875.183,70875.243,,
,Fixation,canvas.Screen,3_0_0_0,2022-03-01T09:21:15.764Z,,,,0,V,2416.7149999999965,timeout,,,,73277.90000003576,73275.291,70858.576,70861.40000003576,70875.243,73291.958,,white
,Stimulus,canvas.Screen,3_0_0_1,2022-03-01T09:21:15.864Z,,,,0,V,100.00200000000768,timeout,,,,73377.60000002384,73375.293,73275.291,73278.30000001192,73291.958,73391.96,,white
,Reaction,canvas.Screen,3_0_0_2,2022-03-01T09:21:16.108Z,,,,0,V,225.14000002383546,response,,stim_detected,keydown(Space),73622.19999998808,73617.10000002384,73375.293,73377.80000001192,73391.96,73625.298,,white
,Trial,flow.Sequence,3_0_0,2022-03-01T09:21:16.109Z,,,,0,V,2741.8570000238396,completion,,,,73622.60000002384,73617.10000002384,70858.576,70861.30000001192,70875.243,73625.298,,white
,Frame,canvas.Frame,3_0,2022-03-01T09:21:16.109Z,,,,0,V,2747.456999988077,,,,,73623,73622.69999998808,70858.576,70860.80000001192,70875.243,73625.298,,white
,Fixation,canvas.Screen,3_1_0_0,2022-03-01T09:21:17.763Z,,,,0,V,1666.7000000000116,timeout,,,,75277.30000001192,75275.331,73608.631,73624.60000002384,73625.298,75291.998,,white
,Stimulus,canvas.Screen,3_1_0_1,2022-03-01T09:21:17.863Z,,,,0,V,100.00199999999313,timeout,,,,75376.60000002384,75375.333,75275.331,75277.69999998808,75291.998,75392,,white
,Reaction,canvas.Screen,3_1_0_2,2022-03-01T09:21:18.044Z,,,,0,V,161.80000001192093,response,,stim_detected,keydown(Space),75558.19999998808,75553.80000001192,75375.333,75377,75392,75575.337,,white
,Trial,flow.Sequence,3_1_0,2022-03-01T09:21:18.045Z,,,,0,V,1928.5020000119257,completion,,,,75558.80000001192,75553.80000001192,73608.631,73624.40000003576,73625.298,75575.337,,white
,Frame,canvas.Frame,3_1,2022-03-01T09:21:18.045Z,,,,0,V,1933.6020000357676,,,,,75559.10000002384,75558.90000003576,73608.631,73623.19999998808,73625.298,75575.337,,white
,Fixation,canvas.Screen,3_2_0_0,2022-03-01T09:21:20.213Z,,,,1,A,2166.7100000000064,timeout,,,,77727.10000002384,77725.38,75558.67,75560.30000001192,75575.337,77742.047,,grey
,Stimulus,canvas.Screen,3_2_0_1,2022-03-01T09:21:20.314Z,,,,1,A,100.00199999999313,timeout,,,,77827.5,77825.382,77725.38,77727.30000001192,77742.047,77842.049,,grey
,Reaction,canvas.Screen,3_2_0_2,2022-03-01T09:21:20.651Z,,,,1,A,318.5510000238428,response,,stim_detected,keydown(Space),78165.19999998808,78160.60000002384,77825.382,77827.69999998808,77842.049,78175.389,,grey
,Trial,flow.Sequence,3_2_0,2022-03-01T09:21:20.652Z,,,,1,A,2585.2630000238423,completion,,,,78165.60000002384,78160.60000002384,75558.67,75560.19999998808,75575.337,78175.389,,grey
,Frame,canvas.Frame,3_2,2022-03-01T09:21:20.652Z,,,,1,A,2590.3629999880795,,,,,78165.80000001192,78165.69999998808,75558.67,75559.19999998808,75575.337,78175.389,,grey
,Fixation,canvas.Screen,3_3_0_0,2022-03-01T09:21:22.971Z,,,,1,VA,2250.0449999999983,timeout,,,,80410.30000001192,80408.767,78158.722,78166.90000003576,78175.389,80425.434,,white
,Stimulus,canvas.Screen,3_3_0_1,2022-03-01T09:21:23.071Z,,,,1,VA,100.00200000000768,timeout,,,,80510.19999998808,80508.769,80408.767,80410.5,80425.434,80525.436,,white
,Reaction,canvas.Screen,3_3_0_2,2022-03-01T09:21:23.344Z,,,,1,VA,252.96400003576127,response,,stim_detected,keydown(Space),80782.80000001192,80778.40000003576,80508.769,80510.40000003576,80525.436,80792.108,,white
,Trial,flow.Sequence,3_3_0,2022-03-01T09:21:23.344Z,,,,1,VA,2603.011000035767,completion,,,,80783.10000002384,80778.40000003576,78158.722,78166.80000001192,78175.389,80792.108,,white
,Frame,canvas.Frame,3_3,2022-03-01T09:21:23.344Z,,,,1,VA,2607.8109999880835,,,,,80783.30000001192,80783.19999998808,78158.722,78165.90000003576,78175.389,80792.108,,white
,Fixation,canvas.Screen,3_4_0_0,2022-03-01T09:21:25.055Z,,,,1,A,1716.701000000001,timeout,,,,82494.40000003576,82492.142,80775.441,80784.40000003576,80792.108,82508.809,,grey
,Stimulus,canvas.Screen,3_4_0_1,2022-03-01T09:21:25.154Z,,,,1,A,100.00200000000768,timeout,,,,82593.40000003576,82592.144,82492.142,82494.5,82508.809,82608.811,,grey
,Reaction,canvas.Screen,3_4_0_2,2022-03-01T09:21:25.362Z,,,,1,A,187.38899998807756,response,,stim_detected,keydown(Space),82800.90000003576,82796.19999998808,82592.144,82593.40000003576,82608.811,82808.815,,grey
,Trial,flow.Sequence,3_4_0,2022-03-01T09:21:25.362Z,,,,1,A,2004.0919999880862,completion,,,,82801.19999998808,82796.19999998808,80775.441,80784.30000001192,80792.108,82808.815,,grey
,Frame,canvas.Frame,3_4,2022-03-01T09:21:25.362Z,,,,1,A,2009.0919999880862,,,,,82801.40000003576,82801.19999998808,80775.441,80783.40000003576,80792.108,82808.815,,grey
,Fixation,canvas.Screen,3_5_0_0,2022-03-01T09:21:27.788Z,,,,1,A,2433.381999999998,timeout,,,,85227.40000003576,85225.53,82792.148,82802.5,82808.815,85242.197,,grey
,Stimulus,canvas.Screen,3_5_0_1,2022-03-01T09:21:27.889Z,,,,1,A,100.00199999999313,timeout,,,,85327.90000003576,85325.532,85225.53,85227.5,85242.197,85342.199,,grey
,Reaction,canvas.Screen,3_5_0_2,2022-03-01T09:21:28.138Z,,,,1,A,230.10100001192768,response,,stim_detected,keydown(Space),85577,85572.30000001192,85325.532,85328,85342.199,85592.204,,grey
,Trial,flow.Sequence,3_5_0,2022-03-01T09:21:28.138Z,,,,1,A,2763.4850000119186,completion,,,,85577.40000003576,85572.30000001192,82792.148,82802.40000003576,82808.815,85592.204,,grey
,Frame,canvas.Frame,3_5,2022-03-01T09:21:28.139Z,,,,1,A,2768.5850000357605,,,,,85577.60000002384,85577.40000003576,82792.148,82801.5,82808.815,85592.204,,grey
,Fixation,canvas.Screen,3_6_0_0,2022-03-01T09:21:30.056Z,,,,0,V,1916.7050000000017,timeout,,,,87494.5,87492.242,85575.537,85578.69999998808,85592.204,87508.909,,white
,Stimulus,canvas.Screen,3_6_0_1,2022-03-01T09:21:30.155Z,,,,0,V,100.00199999999313,timeout,,,,87593.90000003576,87592.244,87492.242,87494.80000001192,87508.909,87608.911,,white
,Reaction,canvas.Screen,3_6_0_2,2022-03-01T09:21:30.366Z,,,,0,V,191.2889999880863,response,,stim_detected,keydown(Space),87804.69999998808,87800.19999998808,87592.244,87594,87608.911,87842.249,,white
,Trial,flow.Sequence,3_6_0,2022-03-01T09:21:30.366Z,,,,0,V,2207.995999988081,completion,,,,87805,87800.19999998808,85575.537,85578.60000002384,85592.204,87842.249,,white
,Frame,canvas.Frame,3_6,2022-03-01T09:21:30.366Z,,,,0,V,2212.896000023844,,,,,87805.19999998808,87805.10000002384,85575.537,85577.69999998808,85592.204,87842.249,,white
,Fixation,canvas.Screen,3_7_0_0,2022-03-01T09:21:32.672Z,,,,1,A,2283.379000000001,timeout,,,,90111.19999998808,90108.961,87792.248,87806.30000001192,87842.249,90125.628,,grey
,Stimulus,canvas.Screen,3_7_0_1,2022-03-01T09:21:32.772Z,,,,1,A,100.00200000000768,timeout,,,,90210.80000001192,90208.963,90108.961,90111.40000003576,90125.628,90225.63,,grey
,Reaction,canvas.Screen,3_7_0_2,2022-03-01T09:21:33.063Z,,,,1,A,272.27000003575813,response,,stim_detected,keydown(Space),90502.19999998808,90497.90000003576,90208.963,90211,90225.63,90508.969,,grey
,Trial,flow.Sequence,3_7_0,2022-03-01T09:21:33.064Z,,,,1,A,2655.6510000357666,completion,,,,90502.60000002384,90497.90000003576,87792.248,87806.19999998808,87842.249,90508.969,,grey
,Frame,canvas.Frame,3_7,2022-03-01T09:21:33.064Z,,,,1,A,2660.3510000238457,,,,,90502.80000001192,90502.60000002384,87792.248,87805.30000001192,87842.249,90508.969,,grey
,Fixation,canvas.Screen,3_8_0_0,2022-03-01T09:21:35.190Z,,,,0,V,2133.376000000004,timeout,,,,92628.69999998808,92625.678,90492.302,90503.90000003576,90508.969,92642.345,,white
,Stimulus,canvas.Screen,3_8_0_1,2022-03-01T09:21:35.289Z,,,,0,V,100.00199999999313,timeout,,,,92727.60000002384,92725.68,92625.678,92628.90000003576,92642.345,92742.347,,white
,Reaction,canvas.Screen,3_8_0_2,2022-03-01T09:21:35.542Z,,,,0,V,234.45300001192663,response,,stim_detected,keydown(Space),92981.19999998808,92976.80000001192,92725.68,92727.80000001192,92742.347,92992.352,,white
,Trial,flow.Sequence,3_8_0,2022-03-01T09:21:35.543Z,,,,0,V,2467.8310000119236,completion,,,,92981.5,92976.80000001192,90492.302,90503.80000001192,90508.969,92992.352,,white
,Frame,canvas.Frame,3_8,2022-03-01T09:21:35.543Z,,,,0,V,2472.6310000238445,,,,,92981.69999998808,92981.60000002384,90492.302,90502.90000003576,90508.969,92992.352,,white
,Fixation,canvas.Screen,3_9_0_0,2022-03-01T09:21:37.322Z,,,,1,VA,1783.369000000006,timeout,,,,94761,94759.054,92975.685,92982.90000003576,92992.352,94775.721,,white
,Stimulus,canvas.Screen,3_9_0_1,2022-03-01T09:21:37.422Z,,,,1,VA,100.00199999999313,timeout,,,,94861.19999998808,94859.056,94759.054,94761.19999998808,94775.721,94875.723,,white
,Reaction,canvas.Screen,3_9_0_2,2022-03-01T09:21:37.631Z,,,,1,VA,190.0770000119228,response,,stim_detected,keydown(Space),95070.19999998808,95065.80000001192,94859.056,94861.40000003576,94875.723,95075.727,,white
,Trial,flow.Sequence,3_9_0,2022-03-01T09:21:37.632Z,,,,1,VA,2073.448000011922,completion,,,,95070.40000003576,95065.80000001192,92975.685,92982.90000003576,92992.352,95075.727,,white
,Frame,canvas.Frame,3_9,2022-03-01T09:21:37.632Z,,,,1,VA,2078.248000023843,,,,,95070.69999998808,95070.60000002384,92975.685,92981.90000003576,92992.352,95075.727,,white
,Fixation,canvas.Screen,3_10_0_0,2022-03-01T09:21:39.822Z,,,,1,VA,2200.0439999999944,timeout,,,,97260.90000003576,97259.104,95059.06,95071.80000001192,95075.727,97275.771,,white
,Stimulus,canvas.Screen,3_10_0_1,2022-03-01T09:21:39.922Z,,,,1,VA,100.00200000000768,timeout,,,,97361.10000002384,97359.106,97259.104,97261.10000002384,97275.771,97375.773,,white
,Reaction,canvas.Screen,3_10_0_2,2022-03-01T09:21:40.108Z,,,,1,VA,165.92699998807802,response,,stim_detected,keydown(Space),97546.90000003576,97541.69999998808,97359.106,97361.30000001192,97375.773,97559.11,,white
,Trial,flow.Sequence,3_10_0,2022-03-01T09:21:40.109Z,,,,1,VA,2465.97299998808,completion,,,,97547.19999998808,97541.69999998808,95059.06,95071.69999998808,95075.727,97559.11,,white
,Frame,canvas.Frame,3_10,2022-03-01T09:21:40.109Z,,,,1,VA,2471.573000011922,,,,,97547.40000003576,97547.30000001192,95059.06,95070.80000001192,95075.727,97559.11,,white
,Fixation,canvas.Screen,3_11_0_0,2022-03-01T09:21:42.106Z,,,,1,A,2000.0399999999936,timeout,,,,99544.60000002384,99542.483,97542.443,97548.40000003576,97559.11,99559.15,,grey
,Stimulus,canvas.Screen,3_11_0_1,2022-03-01T09:21:42.206Z,,,,1,A,100.00200000000768,timeout,,,,99644.5,99642.485,99542.483,99544.80000001192,99559.15,99659.152,,grey
,Reaction,canvas.Screen,3_11_0_2,2022-03-01T09:21:42.484Z,,,,1,A,258.34799999999814,response,,stim_detected,keydown(Space),99922.40000003576,99917.5,99642.485,99644.80000001192,99659.152,99925.824,,grey
,Trial,flow.Sequence,3_11_0,2022-03-01T09:21:42.484Z,,,,1,A,2358.3899999999994,completion,,,,99922.80000001192,99917.5,97542.443,97548.40000003576,97559.11,99925.824,,grey
,Frame,canvas.Frame,3_11,2022-03-01T09:21:42.484Z,,,,1,A,2363.6900000119203,,,,,99922.90000003576,99922.80000001192,97542.443,97547.60000002384,97559.11,99925.824,,grey
,Fixation,canvas.Screen,3_12_0_0,2022-03-01T09:21:44.173Z,,,,1,A,1700.0339999999997,timeout,,,,101611.19999998808,101609.191,99909.157,99924,99925.824,101625.858,,grey
,Stimulus,canvas.Screen,3_12_0_1,2022-03-01T09:21:44.272Z,,,,1,A,100.00200000000768,timeout,,,,101711.10000002384,101709.193,101609.191,101611.40000003576,101625.858,101725.86,,grey
,Reaction,canvas.Screen,3_12_0_2,2022-03-01T09:21:44.508Z,,,,1,A,216.5400000357622,response,,stim_detected,keydown(Space),101946.90000003576,101942.40000003576,101709.193,101711.19999998808,101725.86,101959.198,,grey
,Trial,flow.Sequence,3_12_0,2022-03-01T09:21:44.509Z,,,,1,A,2016.5760000357695,completion,,,,101947.10000002384,101942.40000003576,99909.157,99924,99925.824,101959.198,,grey
,Frame,canvas.Frame,3_12,2022-03-01T09:21:44.509Z,,,,1,A,2021.4760000119277,,,,,101947.30000001192,101947.30000001192,99909.157,99923,99925.824,101959.198,,grey
,Fixation,canvas.Screen,3_13_0_0,2022-03-01T09:21:46.623Z,,,,1,A,2116.7090000000026,timeout,,,,104061.40000003576,104059.24,101942.531,101948.60000002384,101959.198,104075.907,,grey
,Stimulus,canvas.Screen,3_13_0_1,2022-03-01T09:21:46.723Z,,,,1,A,100.00199999999313,timeout,,,,104161.5,104159.242,104059.24,104061.60000002384,104075.907,104175.909,,grey
,Reaction,canvas.Screen,3_13_0_2,2022-03-01T09:21:46.969Z,,,,1,A,227.39100001192128,response,,stim_detected,keydown(Space),104407.60000002384,104403.30000001192,104159.242,104161.69999998808,104175.909,104409.247,,grey
,Trial,flow.Sequence,3_13_0,2022-03-01T09:21:46.969Z,,,,1,A,2444.102000011917,completion,,,,104407.80000001192,104403.30000001192,101942.531,101948.5,101959.198,104409.247,,grey
,Frame,canvas.Frame,3_13,2022-03-01T09:21:46.970Z,,,,1,A,2448.702000035759,,,,,104408.10000002384,104407.90000003576,101942.531,101947.5,101959.198,104409.247,,grey
,Fixation,canvas.Screen,3_14_0_0,2022-03-01T09:21:48.923Z,,,,0,V,1966.705999999991,timeout,,,,106361.30000001192,106359.286,104392.58,104409,104409.247,106375.953,,white
,Stimulus,canvas.Screen,3_14_0_1,2022-03-01T09:21:49.023Z,,,,0,V,100.00200000000768,timeout,,,,106461.40000003576,106459.288,106359.286,106361.5,106375.953,106475.955,,white
,Reaction,canvas.Screen,3_14_0_2,2022-03-01T09:21:49.234Z,,,,0,V,192.1450000238401,response,,stim_detected,keydown(Space),106672.40000003576,106668.10000002384,106459.288,106461.60000002384,106475.955,106709.293,,white
,Trial,flow.Sequence,3_14_0,2022-03-01T09:21:49.235Z,,,,0,V,2258.853000023839,completion,,,,106673.69999998808,106668.10000002384,104392.58,104408.90000003576,104409.247,106709.293,,white
,Frame,canvas.Frame,3_14,2022-03-01T09:21:49.235Z,,,,0,V,2264.553000011918,,,,,106673.90000003576,106673.80000001192,104392.58,104408.10000002384,104409.247,106709.293,,white
,Fixation,canvas.Screen,3_15_0_0,2022-03-01T09:21:50.924Z,,,,1,A,1666.699999999997,timeout,,,,108361.90000003576,108359.326,106692.626,106675.19999998808,106709.293,108375.993,,grey
,Stimulus,canvas.Screen,3_15_0_1,2022-03-01T09:21:51.023Z,,,,1,A,100.00199999999313,timeout,,,,108461.40000003576,108459.328,108359.326,108362.10000002384,108375.993,108475.995,,grey
,Reaction,canvas.Screen,3_15_0_2,2022-03-01T09:21:51.285Z,,,,1,A,242.00500000000466,response,,stim_detected,keydown(Space),108722.90000003576,108718,108459.328,108461.60000002384,108475.995,108726,,grey
,Trial,flow.Sequence,3_15_0,2022-03-01T09:21:51.285Z,,,,1,A,2008.7069999999949,completion,,,,108723.19999998808,108718,106692.626,106675.10000002384,106709.293,108726,,grey
,Frame,canvas.Frame,3_15,2022-03-01T09:21:51.285Z,,,,1,A,2014.0070000119158,,,,,108723.40000003576,108723.30000001192,106692.626,106674.10000002384,106709.293,108726,,grey
,Fixation,canvas.Screen,3_16_0_0,2022-03-01T09:21:53.540Z,,,,0,V,2266.7119999999995,timeout,,,,110978.10000002384,110976.045,108709.333,108724.40000003576,108726,110992.712,,white
,Stimulus,canvas.Screen,3_16_0_1,2022-03-01T09:21:53.640Z,,,,0,V,100.00200000000768,timeout,,,,111078.5,111076.047,110976.045,110978.19999998808,110992.712,111092.714,,white
,Reaction,canvas.Screen,3_16_0_2,2022-03-01T09:21:53.853Z,,,,0,V,194.18600003575557,response,,stim_detected,keydown(Space),111291.19999998808,111286.90000003576,111076.047,111078.80000001192,111092.714,111292.718,,white
,Trial,flow.Sequence,3_16_0,2022-03-01T09:21:53.853Z,,,,0,V,2560.900000035763,completion,,,,111291.5,111286.90000003576,108709.333,108724.40000003576,108726,111292.718,,white
,Frame,canvas.Frame,3_16,2022-03-01T09:21:53.853Z,,,,0,V,2565.600000023842,,,,,111291.69999998808,111291.60000002384,108709.333,108723.5,108726,111292.718,,white
,Fixation,canvas.Screen,3_17_0_0,2022-03-01T09:21:55.724Z,,,,0,V,1883.3710000000137,timeout,,,,113162.19999998808,113159.422,111276.051,111292.69999998808,111292.718,113176.089,,white
,Stimulus,canvas.Screen,3_17_0_1,2022-03-01T09:21:55.824Z,,,,0,V,100.00199999999313,timeout,,,,113261.80000001192,113259.424,113159.422,113162.40000003576,113176.089,113276.091,,white
,Reaction,canvas.Screen,3_17_0_2,2022-03-01T09:21:56.011Z,,,,0,V,168.60899998807872,response,,stim_detected,keydown(Space),113449.10000002384,113444.69999998808,113259.424,113262,113276.091,113459.428,,white
,Trial,flow.Sequence,3_17_0,2022-03-01T09:21:56.011Z,,,,0,V,2151.9819999880856,completion,,,,113449.40000003576,113444.69999998808,111276.051,111292.60000002384,111292.718,113459.428,,white
,Frame,canvas.Frame,3_17,2022-03-01T09:21:56.011Z,,,,0,V,2156.6820000357693,,,,,113449.5,113449.40000003576,111276.051,111291.90000003576,111292.718,113459.428,,white
,Fixation,canvas.Screen,3_18_0_0,2022-03-01T09:21:57.590Z,,,,1,VA,1583.3650000000052,timeout,,,,115028.10000002384,115026.126,113442.761,113450.60000002384,113459.428,115042.793,,white
,Stimulus,canvas.Screen,3_18_0_1,2022-03-01T09:21:57.691Z,,,,1,VA,100.00199999999313,timeout,,,,115129.10000002384,115126.128,115026.126,115028.30000001192,115042.793,115142.795,,white
,Reaction,canvas.Screen,3_18_0_2,2022-03-01T09:21:57.905Z,,,,1,VA,193.70500000000175,response,,stim_detected,keydown(Space),115343.5,115336.5,115126.128,115129.19999998808,115142.795,115359.466,,white
,Trial,flow.Sequence,3_18_0,2022-03-01T09:21:57.906Z,,,,1,VA,1877.0720000000001,completion,,,,115343.90000003576,115336.5,113442.761,113450.5,113459.428,115359.466,,white
,Frame,canvas.Frame,3_18,2022-03-01T09:21:57.906Z,,,,1,VA,1884.5720000000001,,,,,115344.10000002384,115344,113442.761,113449.69999998808,113459.428,115359.466,,white
,Fixation,canvas.Screen,3_19_0_0,2022-03-01T09:21:59.890Z,,,,0,V,1983.3730000000069,timeout,,,,117328.40000003576,117326.172,115342.799,115345.19999998808,115359.466,117342.839,,white
,Stimulus,canvas.Screen,3_19_0_1,2022-03-01T09:21:59.989Z,,,,0,V,100.00199999999313,timeout,,,,117427.5,117426.174,117326.172,117328.60000002384,117342.839,117442.841,,white
,Reaction,canvas.Screen,3_19_0_2,2022-03-01T09:22:00.184Z,,,,0,V,175.65899999999965,response,,stim_detected,keydown(Space),117622.40000003576,117618.5,117426.174,117427.80000001192,117442.841,117626.178,,white
,Trial,flow.Sequence,3_19_0,2022-03-01T09:22:00.185Z,,,,0,V,2259.0339999999997,completion,,,,117622.69999998808,117618.5,115342.799,115345.10000002384,115359.466,117626.178,,white
,Frame,canvas.Frame,3_19,2022-03-01T09:22:00.185Z,,,,0,V,2263.2339999880787,,,,,117622.80000001192,117622.69999998808,115342.799,115344.30000001192,115359.466,117626.178,,white
,Fixation,canvas.Screen,3_20_0_0,2022-03-01T09:22:02.090Z,,,,0,V,1916.7050000000017,timeout,,,,119528.19999998808,119526.216,117609.511,117623.69999998808,117626.178,119542.883,,white
,Stimulus,canvas.Screen,3_20_0_1,2022-03-01T09:22:02.189Z,,,,0,V,100.00199999999313,timeout,,,,119627.40000003576,119626.218,119526.216,119528.40000003576,119542.883,119642.885,,white
,Reaction,canvas.Screen,3_20_0_2,2022-03-01T09:22:02.374Z,,,,0,V,164.41500001192617,response,,stim_detected,keydown(Space),119812,119807.30000001192,119626.218,119627.60000002384,119642.885,119826.222,,white
,Trial,flow.Sequence,3_20_0,2022-03-01T09:22:02.374Z,,,,0,V,2181.122000011921,completion,,,,119812.30000001192,119807.30000001192,117609.511,117623.60000002384,117626.178,119826.222,,white
,Frame,canvas.Frame,3_20,2022-03-01T09:22:02.374Z,,,,0,V,2186.222000035763,,,,,119812.5,119812.40000003576,117609.511,117622.90000003576,117626.178,119826.222,,white
,Fixation,canvas.Screen,3_21_0_0,2022-03-01T09:22:04.557Z,,,,1,A,2183.3770000000077,timeout,,,,121995.40000003576,121992.932,119809.555,119813.40000003576,119826.222,122009.599,,grey
,Stimulus,canvas.Screen,3_21_0_1,2022-03-01T09:22:04.658Z,,,,1,A,100.00199999999313,timeout,,,,122096,122092.934,121992.932,121995.60000002384,122009.599,122109.601,,grey
,Reaction,canvas.Screen,3_21_0_2,2022-03-01T09:22:04.886Z,,,,1,A,209.59899998808396,response,,stim_detected,keydown(Space),122323.60000002384,122319.19999998808,122092.934,122096.10000002384,122109.601,122326.272,,grey
,Trial,flow.Sequence,3_21_0,2022-03-01T09:22:04.886Z,,,,1,A,2492.977999988085,completion,,,,122323.90000003576,122319.19999998808,119809.555,119813.40000003576,119826.222,122326.272,,grey
,Frame,canvas.Frame,3_21,2022-03-01T09:22:04.886Z,,,,1,A,2497.7780000000057,,,,,122324.19999998808,122324,119809.555,119812.60000002384,119826.222,122326.272,,grey
,Fixation,canvas.Screen,3_22_0_0,2022-03-01T09:22:07.324Z,,,,1,VA,2450.048999999999,timeout,,,,124762.10000002384,124759.654,122309.605,122325.19999998808,122326.272,124776.321,,white
,Stimulus,canvas.Screen,3_22_0_1,2022-03-01T09:22:07.424Z,,,,1,VA,100.00200000000768,timeout,,,,124862.30000001192,124859.656,124759.654,124762.40000003576,124776.321,124876.323,,white
,Reaction,canvas.Screen,3_22_0_2,2022-03-01T09:22:07.619Z,,,,1,VA,175.7770000238379,response,,stim_detected,keydown(Space),125056.5,125052.10000002384,124859.656,124862.60000002384,124876.323,125059.66,,white
,Trial,flow.Sequence,3_22_0,2022-03-01T09:22:07.619Z,,,,1,VA,2725.8280000238447,completion,,,,125056.90000003576,125052.10000002384,122309.605,122325.10000002384,122326.272,125059.66,,white
,Frame,canvas.Frame,3_22,2022-03-01T09:22:07.619Z,,,,1,VA,2730.728000000003,,,,,125057,125057,122309.605,122324.30000001192,122326.272,125059.66,,white
,Fixation,canvas.Screen,3_23_0_0,2022-03-01T09:22:09.808Z,,,,1,VA,2200.0439999999944,timeout,,,,127245.5,127243.037,125042.993,125058.19999998808,125059.66,127259.704,,white
,Stimulus,canvas.Screen,3_23_0_1,2022-03-01T09:22:09.906Z,,,,1,VA,100.00200000000768,timeout,,,,127344,127343.039,127243.037,127245.69999998808,127259.704,127359.706,,white
,Reaction,canvas.Screen,3_23_0_2,2022-03-01T09:22:10.118Z,,,,1,VA,192.1940000357572,response,,stim_detected,keydown(Space),127556.19999998808,127551.90000003576,127343.039,127344.19999998808,127359.706,127559.71,,white
,Trial,flow.Sequence,3_23_0,2022-03-01T09:22:10.119Z,,,,1,VA,2492.2400000357593,completion,,,,127556.5,127551.90000003576,125042.993,125058.10000002384,125059.66,127559.71,,white
,Frame,canvas.Frame,3_23,2022-03-01T09:22:10.119Z,,,,1,VA,2496.9400000238384,,,,,127556.60000002384,127556.60000002384,125042.993,125057.19999998808,125059.66,127559.71,,white
,Fixation,canvas.Screen,3_24_0_0,2022-03-01T09:22:12.241Z,,,,0,V,2133.3759999999893,timeout,,,,129678.60000002384,129676.419,127543.043,127557.60000002384,127559.71,129693.086,,white
,Stimulus,canvas.Screen,3_24_0_1,2022-03-01T09:22:12.341Z,,,,0,V,100.00200000000768,timeout,,,,129778.60000002384,129776.421,129676.419,129678.69999998808,129693.086,129793.088,,white
,Reaction,canvas.Screen,3_24_0_2,2022-03-01T09:22:12.541Z,,,,0,V,180.8120000357594,response,,stim_detected,keydown(Space),129978.5,129973.90000003576,129776.421,129778.80000001192,129793.088,129993.092,,white
,Trial,flow.Sequence,3_24_0,2022-03-01T09:22:12.541Z,,,,0,V,2414.1900000357564,completion,,,,129978.69999998808,129973.90000003576,127543.043,127557.60000002384,127559.71,129993.092,,white
,Frame,canvas.Frame,3_24,2022-03-01T09:22:12.541Z,,,,0,V,2419.0900000119145,,,,,129978.90000003576,129978.80000001192,127543.043,127556.69999998808,127559.71,129993.092,,white
,Fixation,canvas.Screen,3_25_0_0,2022-03-01T09:22:14.425Z,,,,0,V,1883.3709999999846,timeout,,,,131862.60000002384,131859.796,129976.425,129980,129993.092,131876.463,,white
,Stimulus,canvas.Screen,3_25_0_1,2022-03-01T09:22:14.524Z,,,,0,V,100.00200000000768,timeout,,,,131961.60000002384,131959.798,131859.796,131862.80000001192,131876.463,131976.465,,white
,Reaction,canvas.Screen,3_25_0_2,2022-03-01T09:22:14.734Z,,,,0,V,190.33500001192442,response,,stim_detected,keydown(Space),132171.40000003576,132166.80000001192,131959.798,131961.80000001192,131976.465,132176.469,,white
,Trial,flow.Sequence,3_25_0,2022-03-01T09:22:14.734Z,,,,0,V,2173.7080000119167,completion,,,,132171.69999998808,132166.80000001192,129976.425,129979.90000003576,129993.092,132176.469,,white
,Frame,canvas.Frame,3_25,2022-03-01T09:22:14.734Z,,,,0,V,2178.8080000357586,,,,,132172,132171.90000003576,129976.425,129979.10000002384,129993.092,132176.469,,white
,Fixation,canvas.Screen,3_26_0_0,2022-03-01T09:22:16.608Z,,,,1,VA,1883.3709999999846,timeout,,,,134045.60000002384,134043.173,132159.802,132173,132176.469,134059.84,,white
,Stimulus,canvas.Screen,3_26_0_1,2022-03-01T09:22:16.708Z,,,,1,VA,100.00200000000768,timeout,,,,134145.30000001192,134143.175,134043.173,134045.80000001192,134059.84,134159.842,,white
,Reaction,canvas.Screen,3_26_0_2,2022-03-01T09:22:16.883Z,,,,1,VA,156.85799998807488,response,,stim_detected,keydown(Space),134321,134316.69999998808,134143.175,134145.60000002384,134159.842,134326.512,,white
,Trial,flow.Sequence,3_26_0,2022-03-01T09:22:16.884Z,,,,1,VA,2140.230999988067,completion,,,,134321.30000001192,134316.69999998808,132159.802,132173,132176.469,134326.512,,white
,Frame,canvas.Frame,3_26,2022-03-01T09:22:16.884Z,,,,1,VA,2144.931000035751,,,,,134321.5,134321.40000003576,132159.802,132172.10000002384,132176.469,134326.512,,white
,Fixation,canvas.Screen,3_27_0_0,2022-03-01T09:22:18.408Z,,,,0,V,1533.3640000000014,timeout,,,,135845.5,135843.209,134309.845,134322.5,134326.512,135859.876,,white
,Stimulus,canvas.Screen,3_27_0_1,2022-03-01T09:22:18.508Z,,,,0,V,100.00200000000768,timeout,,,,135945.19999998808,135943.211,135843.209,135845.69999998808,135859.876,135959.878,,white
,Reaction,canvas.Screen,3_27_0_2,2022-03-01T09:22:18.729Z,,,,0,V,201.62200000000303,response,,stim_detected,keydown(Space),136166.69999998808,136161.5,135943.211,135945.5,135959.878,136176.549,,white
,Trial,flow.Sequence,3_27_0,2022-03-01T09:22:18.729Z,,,,0,V,1834.988000000012,completion,,,,136166.90000003576,136161.5,134309.845,134322.40000003576,134326.512,136176.549,,white
,Frame,canvas.Frame,3_27,2022-03-01T09:22:18.730Z,,,,0,V,1840.488000000012,,,,,136167.10000002384,136167,134309.845,134321.5,134326.512,136176.549,,white
,Fixation,canvas.Screen,3_28_0_0,2022-03-01T09:22:20.241Z,,,,0,V,1516.6970000000147,timeout,,,,137678.60000002384,137676.579,136159.882,136168.10000002384,136176.549,137693.246,,white
,Stimulus,canvas.Screen,3_28_0_1,2022-03-01T09:22:20.342Z,,,,0,V,100.00199999997858,timeout,,,,137779.10000002384,137776.581,137676.579,137678.90000003576,137693.246,137793.248,,white
,Reaction,canvas.Screen,3_28_0_2,2022-03-01T09:22:20.535Z,,,,0,V,175.15200003577047,response,,stim_detected,keydown(Space),137972.69999998808,137968.40000003576,137776.581,137779.19999998808,137793.248,137976.585,,white
,Trial,flow.Sequence,3_28_0,2022-03-01T09:22:20.536Z,,,,0,V,1791.8510000357637,completion,,,,137973.10000002384,137968.40000003576,136159.882,136168,136176.549,137976.585,,white
,Frame,canvas.Frame,3_28,2022-03-01T09:22:20.536Z,,,,0,V,1796.65099998808,,,,,137973.30000001192,137973.19999998808,136159.882,136167.19999998808,136176.549,137976.585,,white
,Fixation,canvas.Screen,3_29_0_0,2022-03-01T09:22:23.024Z,,,,1,VA,2500.0500000000175,timeout,,,,140461.69999998808,140459.968,137959.918,137974.19999998808,137976.585,140476.635,,white
,Stimulus,canvas.Screen,3_29_0_1,2022-03-01T09:22:23.125Z,,,,1,VA,100.00199999997858,timeout,,,,140562.80000001192,140559.97,140459.968,140462,140476.635,140576.637,,white
,Reaction,canvas.Screen,3_29_0_2,2022-03-01T09:22:23.346Z,,,,1,VA,201.56299998809118,response,,stim_detected,keydown(Space),140783,140778.19999998808,140559.97,140562.90000003576,140576.637,140793.308,,white
,Trial,flow.Sequence,3_29_0,2022-03-01T09:22:23.346Z,,,,1,VA,2801.614999988087,completion,,,,140783.30000001192,140778.19999998808,137959.918,137974.19999998808,137976.585,140793.308,,white
,Frame,canvas.Frame,3_29,2022-03-01T09:22:23.346Z,,,,1,VA,2806.715000011929,,,,,140783.5,140783.30000001192,137959.918,137973.40000003576,137976.585,140793.308,,white
,Fixation,canvas.Screen,3_30_0_0,2022-03-01T09:22:25.392Z,,,,1,A,2050.0409999999974,timeout,,,,142829.19999998808,142826.682,140776.641,140784.5,140793.308,142843.349,,grey
,Stimulus,canvas.Screen,3_30_0_1,2022-03-01T09:22:25.492Z,,,,1,A,100.00200000000768,timeout,,,,142929,142926.684,142826.682,142829.5,142843.349,142943.351,,grey
,Reaction,canvas.Screen,3_30_0_2,2022-03-01T09:22:25.754Z,,,,1,A,243.84899998808396,response,,stim_detected,keydown(Space),143191.40000003576,143187.19999998808,142926.684,142929.30000001192,142943.351,143193.356,,grey
,Trial,flow.Sequence,3_30_0,2022-03-01T09:22:25.754Z,,,,1,A,2393.891999988089,completion,,,,143191.69999998808,143187.19999998808,140776.641,140784.40000003576,140793.308,143193.356,,grey
,Frame,canvas.Frame,3_30,2022-03-01T09:22:25.755Z,,,,1,A,2398.492000011931,,,,,143191.90000003576,143191.80000001192,140776.641,140783.60000002384,140793.308,143193.356,,grey
,Fixation,canvas.Screen,3_31_0_0,2022-03-01T09:22:28.108Z,,,,0,V,2366.714000000007,timeout,,,,145545.5,145543.403,143176.689,143192.90000003576,143193.356,145560.07,,white
,Stimulus,canvas.Screen,3_31_0_1,2022-03-01T09:22:28.208Z,,,,0,V,100.00199999997858,timeout,,,,145645.40000003576,145643.405,145543.403,145545.69999998808,145560.07,145660.072,,white
,Reaction,canvas.Screen,3_31_0_2,2022-03-01T09:22:28.448Z,,,,0,V,220.92800000001444,response,,stim_detected,keydown(Space),145885.30000001192,145881,145643.405,145645.60000002384,145660.072,145893.41,,white
,Trial,flow.Sequence,3_31_0,2022-03-01T09:22:28.448Z,,,,0,V,2687.6440000000002,completion,,,,145885.60000002384,145881,143176.689,143192.80000001192,143193.356,145893.41,,white
,Frame,canvas.Frame,3_31,2022-03-01T09:22:28.448Z,,,,0,V,2692.244000023842,,,,,145885.69999998808,145885.60000002384,143176.689,143192,143193.356,145893.41,,white
,Fixation,canvas.Screen,3_32_0_0,2022-03-01T09:22:30.875Z,,,,1,VA,2433.3819999999832,timeout,,,,148312.40000003576,148310.125,145876.743,145886.69999998808,145893.41,148326.792,,white
,Stimulus,canvas.Screen,3_32_0_1,2022-03-01T09:22:30.976Z,,,,1,VA,100.00200000000768,timeout,,,,148412.80000001192,148410.127,148310.125,148312.69999998808,148326.792,148426.794,,white
,Reaction,canvas.Screen,3_32_0_2,2022-03-01T09:22:31.149Z,,,,1,VA,154.90599998808466,response,,stim_detected,keydown(Space),148586.10000002384,148581.69999998808,148410.127,148413,148426.794,148626.798,,white
,Trial,flow.Sequence,3_32_0,2022-03-01T09:22:31.149Z,,,,1,VA,2688.2899999880756,completion,,,,148586.40000003576,148581.69999998808,145876.743,145886.60000002384,145893.41,148626.798,,white
,Frame,canvas.Frame,3_32,2022-03-01T09:22:31.149Z,,,,1,VA,2693.0899999999965,,,,,148586.60000002384,148586.5,145876.743,145885.80000001192,145893.41,148626.798,,white
,Fixation,canvas.Screen,3_33_0_0,2022-03-01T09:22:33.075Z,,,,1,A,1900.0380000000005,timeout,,,,150512.19999998808,150510.169,148576.797,148587.69999998808,148626.798,150526.836,,grey
,Stimulus,canvas.Screen,3_33_0_1,2022-03-01T09:22:33.175Z,,,,1,A,100.00199999997858,timeout,,,,150611.69999998808,150610.171,150510.169,150512.40000003576,150526.836,150626.838,,grey
,Reaction,canvas.Screen,3_33_0_2,2022-03-01T09:22:33.464Z,,,,1,A,270.76200002385303,response,,stim_detected,keydown(Space),150901.30000001192,150897.60000002384,150610.171,150611.90000003576,150626.838,150910.177,,grey
,Trial,flow.Sequence,3_33_0,2022-03-01T09:22:33.464Z,,,,1,A,2270.802000023832,completion,,,,150901.5,150897.60000002384,148576.797,148587.60000002384,148626.798,150910.177,,grey
,Frame,canvas.Frame,3_33,2022-03-01T09:22:33.465Z,,,,1,A,2274.802000023832,,,,,150901.60000002384,150901.60000002384,148576.797,148586.69999998808,148626.798,150910.177,,grey
,Fixation,canvas.Screen,3_34_0_0,2022-03-01T09:22:35.293Z,,,,1,VA,1833.3699999999953,timeout,,,,152729.69999998808,152726.88,150893.51,150902.40000003576,150910.177,152743.547,,white
,Stimulus,canvas.Screen,3_34_0_1,2022-03-01T09:22:35.393Z,,,,1,VA,100.00200000000768,timeout,,,,152829.60000002384,152826.882,152726.88,152729.90000003576,152743.547,152843.549,,white
,Reaction,canvas.Screen,3_34_0_2,2022-03-01T09:22:35.590Z,,,,1,VA,179.0510000238428,response,,stim_detected,keydown(Space),153027.19999998808,153022.60000002384,152826.882,152829.80000001192,152843.549,153043.553,,white
,Trial,flow.Sequence,3_34_0,2022-03-01T09:22:35.590Z,,,,1,VA,2112.423000023846,completion,,,,153027.5,153022.60000002384,150893.51,150902.40000003576,150910.177,153043.553,,white
,Frame,canvas.Frame,3_34,2022-03-01T09:22:35.591Z,,,,1,VA,2117.323000000004,,,,,153027.60000002384,153027.5,150893.51,150901.69999998808,150910.177,153043.553,,white
,Fixation,canvas.Screen,3_35_0_0,2022-03-01T09:22:37.775Z,,,,1,A,2183.3769999999786,timeout,,,,155212,155210.263,153026.886,153028.60000002384,153043.553,155226.93,,grey
,Stimulus,canvas.Screen,3_35_0_1,2022-03-01T09:22:37.876Z,,,,1,A,100.00200000000768,timeout,,,,155312.5,155310.265,155210.263,155212.19999998808,155226.93,155326.932,,grey
,Reaction,canvas.Screen,3_35_0_2,2022-03-01T09:22:38.135Z,,,,1,A,240.5679999999993,response,,stim_detected,keydown(Space),155572.19999998808,155567.5,155310.265,155312.69999998808,155326.932,155576.937,,grey
,Trial,flow.Sequence,3_35_0,2022-03-01T09:22:38.135Z,,,,1,A,2523.9469999999856,completion,,,,155572.5,155567.5,153026.886,153028.60000002384,153043.553,155576.937,,grey
,Frame,canvas.Frame,3_35,2022-03-01T09:22:38.136Z,,,,1,A,2528.9469999999856,,,,,155572.69999998808,155572.5,153026.886,153027.80000001192,153043.553,155576.937,,grey
,Fixation,canvas.Screen,3_36_0_0,2022-03-01T09:22:40.025Z,,,,1,VA,1900.0380000000005,timeout,,,,157462,157460.308,155560.27,155573.69999998808,155576.937,157476.975,,white
,Stimulus,canvas.Screen,3_36_0_1,2022-03-01T09:22:40.126Z,,,,1,VA,100.00200000000768,timeout,,,,157562.5,157560.31,157460.308,157462.19999998808,157476.975,157576.977,,white
,Reaction,canvas.Screen,3_36_0_2,2022-03-01T09:22:40.329Z,,,,1,VA,184.32300001190742,response,,stim_detected,keydown(Space),157765.69999998808,157761.30000001192,157560.31,157562.69999998808,157576.977,157776.981,,white
,Trial,flow.Sequence,3_36_0,2022-03-01T09:22:40.329Z,,,,1,VA,2184.3630000119156,completion,,,,157766.10000002384,157761.30000001192,155560.27,155573.60000002384,155576.937,157776.981,,white
,Frame,canvas.Frame,3_36,2022-03-01T09:22:40.329Z,,,,1,VA,2189.1630000238365,,,,,157766.19999998808,157766.10000002384,155560.27,155572.80000001192,155576.937,157776.981,,white
,Fixation,canvas.Screen,3_37_0_0,2022-03-01T09:22:41.843Z,,,,0,V,1516.6970000000147,timeout,,,,159279.80000001192,159277.011,157760.314,157767.19999998808,157776.981,159293.678,,white
,Stimulus,canvas.Screen,3_37_0_1,2022-03-01T09:22:41.943Z,,,,0,V,100.00199999997858,timeout,,,,159379.40000003576,159377.013,159277.011,159280.10000002384,159293.678,159393.68,,white
,Reaction,canvas.Screen,3_37_0_2,2022-03-01T09:22:42.322Z,,,,0,V,360.51999998808606,response,,stim_detected,keydown(Space),159758.69999998808,159754.19999998808,159377.013,159379.60000002384,159393.68,159760.354,,white
,Trial,flow.Sequence,3_37_0,2022-03-01T09:22:42.322Z,,,,0,V,1977.2189999880793,completion,,,,159759,159754.19999998808,157760.314,157767.19999998808,157776.981,159760.354,,white
,Frame,canvas.Frame,3_37,2022-03-01T09:22:42.322Z,,,,0,V,1982.119000023842,,,,,159759.19999998808,159759.10000002384,157760.314,157766.30000001192,157776.981,159760.354,,white
,Fixation,canvas.Screen,3_38_0_0,2022-03-01T09:22:43.942Z,,,,0,V,1633.366000000009,timeout,,,,161379.10000002384,161377.053,159743.687,159760.30000001192,159760.354,161393.72,,white
,Stimulus,canvas.Screen,3_38_0_1,2022-03-01T09:22:44.043Z,,,,0,V,100.00200000000768,timeout,,,,161479.80000001192,161477.055,161377.053,161379.19999998808,161393.72,161493.722,,white
,Reaction,canvas.Screen,3_38_0_2,2022-03-01T09:22:44.250Z,,,,0,V,188.27799999999115,response,,stim_detected,keydown(Space),161686.90000003576,161682,161477.055,161480.10000002384,161493.722,161693.726,,white
,Trial,flow.Sequence,3_38_0,2022-03-01T09:22:44.250Z,,,,0,V,1921.646000000008,completion,,,,161687.19999998808,161682,159743.687,159760.30000001192,159760.354,161693.726,,white
,Frame,canvas.Frame,3_38,2022-03-01T09:22:44.251Z,,,,0,V,1926.845999988087,,,,,161687.40000003576,161687.19999998808,159743.687,159759.40000003576,159760.354,161693.726,,white
,Fixation,canvas.Screen,3_39_0_0,2022-03-01T09:22:45.859Z,,,,1,VA,1616.6989999999932,timeout,,,,163296,163293.758,161677.059,161688.40000003576,161693.726,163310.425,,white
,Stimulus,canvas.Screen,3_39_0_1,2022-03-01T09:22:45.959Z,,,,1,VA,100.00200000000768,timeout,,,,163396,163393.76,163293.758,163296.10000002384,163310.425,163410.427,,white
,Reaction,canvas.Screen,3_39_0_2,2022-03-01T09:22:46.200Z,,,,1,VA,221.47300003576674,response,,stim_detected,keydown(Space),163636.40000003576,163631.90000003576,163393.76,163396.19999998808,163410.427,163643.765,,white
,Trial,flow.Sequence,3_39_0,2022-03-01T09:22:46.200Z,,,,1,VA,1938.1740000357677,completion,,,,163636.69999998808,163631.90000003576,161677.059,161688.30000001192,161693.726,163643.765,,white
,Frame,canvas.Frame,3_39,2022-03-01T09:22:46.200Z,,,,1,VA,1942.973999988084,,,,,163636.90000003576,163636.69999998808,161677.059,161687.40000003576,161693.726,163643.765,,white
,Fixation,canvas.Screen,3_40_0_0,2022-03-01T09:22:47.776Z,,,,0,V,1583.3649999999907,timeout,,,,165212.5,165210.463,163627.098,163637.90000003576,163643.765,165227.13,,white
,Stimulus,canvas.Screen,3_40_0_1,2022-03-01T09:22:47.876Z,,,,0,V,100.00200000000768,timeout,,,,165312.60000002384,165310.465,165210.463,165212.60000002384,165227.13,165327.132,,white
,Reaction,canvas.Screen,3_40_0_2,2022-03-01T09:22:48.184Z,,,,0,V,288.6680000119086,response,,stim_detected,keydown(Space),165620.40000003576,165615.80000001192,165310.465,165312.80000001192,165327.132,165660.472,,white
,Trial,flow.Sequence,3_40_0,2022-03-01T09:22:48.184Z,,,,0,V,1972.035000011907,completion,,,,165620.69999998808,165615.80000001192,163627.098,163637.90000003576,163643.765,165660.472,,white
,Frame,canvas.Frame,3_40,2022-03-01T09:22:48.184Z,,,,0,V,1977.035000011907,,,,,165620.90000003576,165620.80000001192,163627.098,163637,163643.765,165660.472,,white
,Fixation,canvas.Screen,3_41_0_0,2022-03-01T09:22:49.709Z,,,,0,V,1500.0299999999988,timeout,,,,167146.10000002384,167143.835,165610.471,165621.90000003576,165660.472,167160.502,,white
,Stimulus,canvas.Screen,3_41_0_1,2022-03-01T09:22:49.810Z,,,,0,V,100.00199999997858,timeout,,,,167246.69999998808,167243.837,167143.835,167146.30000001192,167160.502,167260.504,,white
,Reaction,canvas.Screen,3_41_0_2,2022-03-01T09:22:50.121Z,,,,0,V,292.29600001193467,response,,stim_detected,keydown(Space),167557.10000002384,167552.80000001192,167243.837,167246.90000003576,167260.504,167560.51,,white
,Trial,flow.Sequence,3_41_0,2022-03-01T09:22:50.121Z,,,,0,V,1892.328000011912,completion,,,,167557.40000003576,167552.80000001192,165610.471,165621.80000001192,165660.472,167560.51,,white
,Frame,canvas.Frame,3_41,2022-03-01T09:22:50.121Z,,,,0,V,1897.128000023833,,,,,167557.69999998808,167557.60000002384,165610.471,165621,165660.472,167560.51,,white
,Fixation,canvas.Screen,3_42_0_0,2022-03-01T09:22:51.643Z,,,,1,A,1533.3640000000014,timeout,,,,169079.40000003576,169077.207,167543.843,167559,167560.51,169093.874,,grey
,Stimulus,canvas.Screen,3_42_0_1,2022-03-01T09:22:51.744Z,,,,1,A,100.00199999997858,timeout,,,,169180.10000002384,169177.209,169077.207,169079.60000002384,169093.874,169193.876,,grey
,Reaction,canvas.Screen,3_42_0_2,2022-03-01T09:22:52.062Z,,,,1,A,299.8239999880898,response,,stim_detected,keydown(Space),169498.5,169493.69999998808,169177.209,169180.19999998808,169193.876,169510.549,,grey
,Trial,flow.Sequence,3_42_0,2022-03-01T09:22:52.062Z,,,,1,A,1933.1899999880698,completion,,,,169498.80000001192,169493.69999998808,167543.843,167559,167560.51,169510.549,,grey
,Frame,canvas.Frame,3_42,2022-03-01T09:22:52.062Z,,,,1,A,1938.3900000357535,,,,,169499,169498.90000003576,167543.843,167557.80000001192,167560.51,169510.549,,grey
,Fixation,canvas.Screen,3_43_0_0,2022-03-01T09:22:54.326Z,,,,1,VA,2266.7119999999995,timeout,,,,171762.69999998808,171760.594,169493.882,169499.90000003576,169510.549,171777.261,,white
,Stimulus,canvas.Screen,3_43_0_1,2022-03-01T09:22:54.426Z,,,,1,VA,100.00200000000768,timeout,,,,171862.80000001192,171860.596,171760.594,171762.90000003576,171777.261,171877.263,,white
,Reaction,canvas.Screen,3_43_0_2,2022-03-01T09:22:54.609Z,,,,1,VA,163.1370000357565,response,,stim_detected,keydown(Space),172045,172040.40000003576,171860.596,171862.90000003576,171877.263,172060.6,,white
,Trial,flow.Sequence,3_43_0,2022-03-01T09:22:54.609Z,,,,1,VA,2529.8510000357637,completion,,,,172045.40000003576,172040.40000003576,169493.882,169499.80000001192,169510.549,172060.6,,white
,Frame,canvas.Frame,3_43,2022-03-01T09:22:54.609Z,,,,1,VA,2534.951000000001,,,,,172045.60000002384,172045.5,169493.882,169499,169510.549,172060.6,,white
,Fixation,canvas.Screen,3_44_0_0,2022-03-01T09:22:56.493Z,,,,1,A,1883.3709999999846,timeout,,,,173929.30000001192,173927.304,172043.933,172046.80000001192,172060.6,173943.971,,grey
,Stimulus,canvas.Screen,3_44_0_1,2022-03-01T09:22:56.594Z,,,,1,A,100.00200000000768,timeout,,,,174029.90000003576,174027.306,173927.304,173929.5,173943.971,174043.973,,grey
,Reaction,canvas.Screen,3_44_0_2,2022-03-01T09:22:56.876Z,,,,1,A,264.42700003576465,response,,stim_detected,keydown(Space),174312.80000001192,174308.40000003576,174027.306,174030.10000002384,174043.973,174327.312,,grey
,Trial,flow.Sequence,3_44_0,2022-03-01T09:22:56.877Z,,,,1,A,2247.800000035757,completion,,,,174313,174308.40000003576,172043.933,172046.69999998808,172060.6,174327.312,,grey
,Frame,canvas.Frame,3_44,2022-03-01T09:22:56.877Z,,,,1,A,2252.5999999880733,,,,,174313.19999998808,174313.19999998808,172043.933,172045.80000001192,172060.6,174327.312,,grey
,Fixation,canvas.Screen,3_45_0_0,2022-03-01T09:22:58.643Z,,,,1,VA,1766.7019999999902,timeout,,,,176079.69999998808,176077.347,174310.645,174315.19999998808,174327.312,176094.014,,white
,Stimulus,canvas.Screen,3_45_0_1,2022-03-01T09:22:58.743Z,,,,1,VA,100.00200000000768,timeout,,,,176179.5,176177.349,176077.347,176080,176094.014,176194.016,,white
,Reaction,canvas.Screen,3_45_0_2,2022-03-01T09:22:58.884Z,,,,1,VA,122.28400001191767,response,,stim_detected,keydown(Space),176320.69999998808,176316.30000001192,176177.349,176179.60000002384,176194.016,176327.352,,white
,Trial,flow.Sequence,3_45_0,2022-03-01T09:22:58.885Z,,,,1,VA,1988.9880000119156,completion,,,,176321.10000002384,176316.30000001192,174310.645,174315.19999998808,174327.312,176327.352,,white
,Frame,canvas.Frame,3_45,2022-03-01T09:22:58.885Z,,,,1,VA,1993.8879999880737,,,,,176321.40000003576,176321.19999998808,174310.645,174313.40000003576,174327.312,176327.352,,white
,Fixation,canvas.Screen,3_46_0_0,2022-03-01T09:23:00.377Z,,,,1,VA,1500.0299999999988,timeout,,,,177813.5,177810.715,176310.685,176322.40000003576,176327.352,177827.382,,white
,Stimulus,canvas.Screen,3_46_0_1,2022-03-01T09:23:00.476Z,,,,1,VA,100.00199999997858,timeout,,,,177912.80000001192,177910.717,177810.715,177813.69999998808,177827.382,177927.384,,white
,Reaction,canvas.Screen,3_46_0_2,2022-03-01T09:23:00.761Z,,,,1,VA,264.81599998808815,response,,stim_detected,keydown(Space),178196.90000003576,178192.19999998808,177910.717,177913,177927.384,178210.723,,white
,Trial,flow.Sequence,3_46_0,2022-03-01T09:23:00.761Z,,,,1,VA,1864.8479999880656,completion,,,,178197.19999998808,178192.19999998808,176310.685,176322.30000001192,176327.352,178210.723,,white
,Frame,canvas.Frame,3_46,2022-03-01T09:23:00.761Z,,,,1,VA,1869.9480000119074,,,,,178197.30000001192,178197.30000001192,176310.685,176321.40000003576,176327.352,178210.723,,white
,Fixation,canvas.Screen,3_47_0_0,2022-03-01T09:23:03.193Z,,,,1,A,2433.3820000000123,timeout,,,,180629.5,180627.438,178194.056,178198.30000001192,178210.723,180644.105,,grey
,Stimulus,canvas.Screen,3_47_0_1,2022-03-01T09:23:03.294Z,,,,1,A,100.00199999997858,timeout,,,,180729.80000001192,180727.44,180627.438,180629.69999998808,180644.105,180744.107,,grey
,Reaction,canvas.Screen,3_47_0_2,2022-03-01T09:23:03.582Z,,,,1,A,269.89300000001094,response,,stim_detected,keydown(Space),181018.40000003576,181014,180727.44,180730.19999998808,180744.107,181027.446,,grey
,Trial,flow.Sequence,3_47_0,2022-03-01T09:23:03.583Z,,,,1,A,2803.277000000002,completion,,,,181018.69999998808,181014,178194.056,178198.30000001192,178210.723,181027.446,,grey
,Frame,canvas.Frame,3_47,2022-03-01T09:23:03.583Z,,,,1,A,2808.077000011923,,,,,181018.90000003576,181018.80000001192,178194.056,178197.40000003576,178210.723,181027.446,,grey
,Fixation,canvas.Screen,3_48_0_0,2022-03-01T09:23:06.076Z,,,,1,A,2500.0500000000175,timeout,,,,183512.19999998808,183510.829,181010.779,181020.10000002384,181027.446,183527.496,,grey
,Stimulus,canvas.Screen,3_48_0_1,2022-03-01T09:23:06.177Z,,,,1,A,100.00199999997858,timeout,,,,183613,183610.831,183510.829,183512.40000003576,183527.496,183627.498,,grey
,Reaction,canvas.Screen,3_48_0_2,2022-03-01T09:23:06.405Z,,,,1,A,208.60200002384954,response,,stim_detected,keydown(Space),183840.80000001192,183836.10000002384,183610.831,183613.10000002384,183627.498,183844.169,,grey
,Trial,flow.Sequence,3_48_0,2022-03-01T09:23:06.405Z,,,,1,A,2808.6540000238456,completion,,,,183841.10000002384,183836.10000002384,181010.779,181020,181027.446,183844.169,,grey
,Frame,canvas.Frame,3_48,2022-03-01T09:23:06.405Z,,,,1,A,2813.753999988083,,,,,183841.30000001192,183841.19999998808,181010.779,181019,181027.446,183844.169,,grey
,Fixation,canvas.Screen,3_49_0_0,2022-03-01T09:23:08.244Z,,,,1,VA,1850.0370000000112,timeout,,,,185680,185677.539,183827.502,183842.30000001192,183844.169,185694.206,,white
,Stimulus,canvas.Screen,3_49_0_1,2022-03-01T09:23:08.344Z,,,,1,VA,100.00200000000768,timeout,,,,185780.10000002384,185777.541,185677.539,185680.19999998808,185694.206,185794.208,,white
,Reaction,canvas.Screen,3_49_0_2,2022-03-01T09:23:08.532Z,,,,1,VA,169.69200003574952,response,,stim_detected,keydown(Space),185968.30000001192,185963.90000003576,185777.541,185780.30000001192,185794.208,185977.545,,white
,Trial,flow.Sequence,3_49_0,2022-03-01T09:23:08.533Z,,,,1,VA,2119.7310000357684,completion,,,,185968.5,185963.90000003576,183827.502,183842.30000001192,183844.169,185977.545,,white
,Frame,canvas.Frame,3_49,2022-03-01T09:23:08.533Z,,,,1,VA,2124.4310000238474,,,,,185968.80000001192,185968.60000002384,183827.502,183841.30000001192,183844.169,185977.545,,white
,Fixation,canvas.Screen,3_50_0_0,2022-03-01T09:23:10.211Z,,,,1,VA,1683.3669999999984,timeout,,,,187646.80000001192,187644.245,185960.878,185969.69999998808,185977.545,187660.912,,white
,Stimulus,canvas.Screen,3_50_0_1,2022-03-01T09:23:10.311Z,,,,1,VA,100.00199999997858,timeout,,,,187746.90000003576,187744.247,187644.245,187647,187660.912,187760.914,,white
,Reaction,canvas.Screen,3_50_0_2,2022-03-01T09:23:10.502Z,,,,1,VA,172.78599998808932,response,,stim_detected,keydown(Space),187938.10000002384,187933.69999998808,187744.247,187747,187760.914,187944.251,,white
,Trial,flow.Sequence,3_50_0,2022-03-01T09:23:10.502Z,,,,1,VA,1956.1549999880663,completion,,,,187938.5,187933.69999998808,185960.878,185969.60000002384,185977.545,187944.251,,white
,Frame,canvas.Frame,3_50,2022-03-01T09:23:10.503Z,,,,1,VA,1960.9549999999872,,,,,187938.60000002384,187938.5,185960.878,185968.80000001192,185977.545,187944.251,,white
,Fixation,canvas.Screen,3_51_0_0,2022-03-01T09:23:12.877Z,,,,1,A,2383.381000000023,timeout,,,,190312.90000003576,190310.965,187927.584,187939.69999998808,187944.251,190327.632,,grey
,Stimulus,canvas.Screen,3_51_0_1,2022-03-01T09:23:12.977Z,,,,1,A,100.00199999997858,timeout,,,,190413,190410.967,190310.965,190313.10000002384,190327.632,190427.634,,grey
,Reaction,canvas.Screen,3_51_0_2,2022-03-01T09:23:13.268Z,,,,1,A,271.8660000000091,response,,stim_detected,keydown(Space),190704,190699.5,190410.967,190413.19999998808,190427.634,190710.973,,grey
,Trial,flow.Sequence,3_51_0,2022-03-01T09:23:13.268Z,,,,1,A,2755.2490000000107,completion,,,,190704.30000001192,190699.5,187927.584,187939.69999998808,187944.251,190710.973,,grey
,Frame,canvas.Frame,3_51,2022-03-01T09:23:13.269Z,,,,1,A,2760.1490000357735,,,,,190704.5,190704.40000003576,187927.584,187938.69999998808,187944.251,190710.973,,grey
,Fixation,canvas.Screen,3_52_0_0,2022-03-01T09:23:14.760Z,,,,0,V,1500.0299999999988,timeout,,,,192196.30000001192,192194.336,190694.306,190705.40000003576,190710.973,192211.003,,white
,Stimulus,canvas.Screen,3_52_0_1,2022-03-01T09:23:14.861Z,,,,0,V,100.00200000000768,timeout,,,,192296.69999998808,192294.338,192194.336,192196.5,192211.003,192311.005,,white
,Reaction,canvas.Screen,3_52_0_2,2022-03-01T09:23:15.139Z,,,,0,V,259.49499999999534,response,,stim_detected,keydown(Space),192574.90000003576,192570.5,192294.338,192296.90000003576,192311.005,192577.677,,white
,Trial,flow.Sequence,3_52_0,2022-03-01T09:23:15.139Z,,,,0,V,1859.5270000000019,completion,,,,192575.10000002384,192570.5,190694.306,190705.40000003576,190710.973,192577.677,,white
,Frame,canvas.Frame,3_52,2022-03-01T09:23:15.139Z,,,,0,V,1864.226999988081,,,,,192575.30000001192,192575.19999998808,190694.306,190704.60000002384,190710.973,192577.677,,white
,Fixation,canvas.Screen,3_53_0_0,2022-03-01T09:23:17.327Z,,,,1,VA,2216.7110000000102,timeout,,,,194763.19999998808,194761.054,192561.01,192576.19999998808,192577.677,194794.388,,white
,Stimulus,canvas.Screen,3_53_0_1,2022-03-01T09:23:17.445Z,,,,1,VA,100.00200000000768,timeout,,,,194880.5,194877.723,194761.054,194763.40000003576,194794.388,194894.39,,white
,Reaction,canvas.Screen,3_53_0_2,2022-03-01T09:23:17.682Z,,,,1,VA,218.8099999880651,response,,stim_detected,keydown(Space),195118,195113.19999998808,194877.723,194880.69999998808,194894.39,195127.728,,white
,Trial,flow.Sequence,3_53_0,2022-03-01T09:23:17.682Z,,,,1,VA,2535.522999988083,completion,,,,195118.19999998808,195113.19999998808,192561.01,192576.19999998808,192577.677,195127.728,,white
,Frame,canvas.Frame,3_53,2022-03-01T09:23:17.683Z,,,,1,VA,2540.623000011925,,,,,195118.40000003576,195118.30000001192,192561.01,192575.40000003576,192577.677,195127.728,,white
,Fixation,canvas.Screen,3_54_0_0,2022-03-01T09:23:19.577Z,,,,1,A,1900.0380000000005,timeout,,,,197012.30000001192,197011.099,195111.061,195119.5,195127.728,197027.766,,grey
,Stimulus,canvas.Screen,3_54_0_1,2022-03-01T09:23:19.677Z,,,,1,A,100.00200000000768,timeout,,,,197112.40000003576,197111.101,197011.099,197012.40000003576,197027.766,197127.768,,grey
,Reaction,canvas.Screen,3_54_0_2,2022-03-01T09:23:19.946Z,,,,1,A,249.43199998806813,response,,stim_detected,keydown(Space),197381.5,197377.19999998808,197111.101,197112.5,197127.768,197394.44,,grey
,Trial,flow.Sequence,3_54_0,2022-03-01T09:23:19.946Z,,,,1,A,2249.4719999880763,completion,,,,197381.80000001192,197377.19999998808,195111.061,195119.40000003576,195127.728,197394.44,,grey
,Frame,canvas.Frame,3_54,2022-03-01T09:23:19.946Z,,,,1,A,2254.17200003576,,,,,197382,197381.90000003576,195111.061,195118.5,195127.728,197394.44,,grey
,Fixation,canvas.Screen,3_55_0_0,2022-03-01T09:23:22.010Z,,,,0,V,2066.707999999984,timeout,,,,199446.10000002384,199444.481,197377.773,197383,197394.44,199461.148,,white
,Stimulus,canvas.Screen,3_55_0_1,2022-03-01T09:23:22.111Z,,,,0,V,100.00200000000768,timeout,,,,199546.69999998808,199544.483,199444.481,199446.30000001192,199461.148,199561.15,,white
,Reaction,canvas.Screen,3_55_0_2,2022-03-01T09:23:22.379Z,,,,0,V,248.85000000000582,response,,stim_detected,keydown(Space),199814.80000001192,199810,199544.483,199546.80000001192,199561.15,199827.822,,white
,Trial,flow.Sequence,3_55_0,2022-03-01T09:23:22.379Z,,,,0,V,2415.5599999999977,completion,,,,199815.10000002384,199810,197377.773,197382.90000003576,197394.44,199827.822,,white
,Frame,canvas.Frame,3_55,2022-03-01T09:23:22.380Z,,,,0,V,2420.7599999880767,,,,,199815.19999998808,199815.19999998808,197377.773,197382.10000002384,197394.44,199827.822,,white
,Fixation,canvas.Screen,3_56_0_0,2022-03-01T09:23:24.311Z,,,,1,A,1933.372000000003,timeout,,,,201746.60000002384,201744.527,199811.155,199816.30000001192,199827.822,201761.194,,grey
,Stimulus,canvas.Screen,3_56_0_1,2022-03-01T09:23:24.411Z,,,,1,A,100.00200000000768,timeout,,,,201847.10000002384,201844.529,201744.527,201746.80000001192,201761.194,201861.196,,grey
,Reaction,canvas.Screen,3_56_0_2,2022-03-01T09:23:24.721Z,,,,1,A,290.7040000357665,response,,stim_detected,keydown(Space),202156.5,202151.90000003576,201844.529,201847.19999998808,201861.196,202161.202,,grey
,Trial,flow.Sequence,3_56_0,2022-03-01T09:23:24.721Z,,,,1,A,2324.078000035777,completion,,,,202156.80000001192,202151.90000003576,199811.155,199816.30000001192,199827.822,202161.202,,grey
,Frame,canvas.Frame,3_56,2022-03-01T09:23:24.721Z,,,,1,A,2329.078000035777,,,,,202157,202156.90000003576,199811.155,199815.40000003576,199827.822,202161.202,,grey
,Fixation,canvas.Screen,3_57_0_0,2022-03-01T09:23:26.544Z,,,,1,A,1833.3699999999953,timeout,,,,203979.60000002384,203977.905,202144.535,202158,202161.202,203994.572,,grey
,Stimulus,canvas.Screen,3_57_0_1,2022-03-01T09:23:26.644Z,,,,1,A,100.00200000000768,timeout,,,,204079.90000003576,204077.907,203977.905,203979.80000001192,203994.572,204094.574,,grey
,Reaction,canvas.Screen,3_57_0_2,2022-03-01T09:23:26.877Z,,,,1,A,213.22600001192768,response,,stim_detected,keydown(Space),204312.19999998808,204307.80000001192,204077.907,204080,204094.574,204327.912,,grey
,Trial,flow.Sequence,3_57_0,2022-03-01T09:23:26.877Z,,,,1,A,2146.5980000119307,completion,,,,204312.40000003576,204307.80000001192,202144.535,202157.90000003576,202161.202,204327.912,,grey
,Frame,canvas.Frame,3_57,2022-03-01T09:23:26.877Z,,,,1,A,2151.29800000001,,,,,204312.60000002384,204312.5,202144.535,202157,202161.202,204327.912,,grey
,Fixation,canvas.Screen,3_58_0_0,2022-03-01T09:23:28.645Z,,,,1,A,1766.7019999999902,timeout,,,,206080,206077.947,204311.245,204313.60000002384,204327.912,206094.614,,grey
,Stimulus,canvas.Screen,3_58_0_1,2022-03-01T09:23:28.744Z,,,,1,A,100.00200000000768,timeout,,,,206179.80000001192,206177.949,206077.947,206080.19999998808,206094.614,206194.616,,grey
,Reaction,canvas.Screen,3_58_0_2,2022-03-01T09:23:28.995Z,,,,1,A,230.08399998807,response,,stim_detected,keydown(Space),206430,206424.69999998808,206177.949,206179.90000003576,206194.616,206444.621,,grey
,Trial,flow.Sequence,3_58_0,2022-03-01T09:23:28.995Z,,,,1,A,2096.787999988068,completion,,,,206430.19999998808,206424.69999998808,204311.245,204313.5,204327.912,206444.621,,grey
,Frame,canvas.Frame,3_58,2022-03-01T09:23:28.995Z,,,,1,A,2102.3880000119098,,,,,206430.40000003576,206430.30000001192,204311.245,204312.69999998808,204327.912,206444.621,,grey
,Fixation,canvas.Screen,3_59_0_0,2022-03-01T09:23:31.211Z,,,,1,VA,2216.710999999981,timeout,,,,208646.69999998808,208644.665,206427.954,206431.5,206444.621,208661.332,,white
,Stimulus,canvas.Screen,3_59_0_1,2022-03-01T09:23:31.310Z,,,,1,VA,100.00200000000768,timeout,,,,208745.80000001192,208744.667,208644.665,208646.90000003576,208661.332,208761.334,,white
,Reaction,canvas.Screen,3_59_0_2,2022-03-01T09:23:31.529Z,,,,1,VA,198.3659999880765,response,,stim_detected,keydown(Space),208964.19999998808,208959.69999998808,208744.667,208745.90000003576,208761.334,208978.005,,white
,Trial,flow.Sequence,3_59_0,2022-03-01T09:23:31.529Z,,,,1,VA,2515.0789999880653,completion,,,,208964.5,208959.69999998808,206427.954,206431.40000003576,206444.621,208978.005,,white
,Frame,canvas.Frame,3_59,2022-03-01T09:23:31.529Z,,,,1,VA,2519.8789999999863,,,,,208964.80000001192,208964.5,206427.954,206430.5,206444.621,208978.005,,white
,Fixation,canvas.Screen,3_60_0_0,2022-03-01T09:23:33.594Z,,,,0,V,2066.707999999984,timeout,,,,211029.19999998808,211028.046,208961.338,208965.80000001192,208978.005,211044.713,,white
,Stimulus,canvas.Screen,3_60_0_1,2022-03-01T09:23:33.696Z,,,,0,V,100.00200000000768,timeout,,,,211131.19999998808,211128.048,211028.046,211029.5,211044.713,211144.715,,white
,Reaction,canvas.Screen,3_60_0_2,2022-03-01T09:23:33.915Z,,,,0,V,201.58500001192442,response,,stim_detected,keydown(Space),211350.60000002384,211346.30000001192,211128.048,211131.40000003576,211144.715,211361.386,,white
,Trial,flow.Sequence,3_60_0,2022-03-01T09:23:33.916Z,,,,0,V,2368.2950000119163,completion,,,,211351,211346.30000001192,208961.338,208965.80000001192,208978.005,211361.386,,white
,Frame,canvas.Frame,3_60,2022-03-01T09:23:33.916Z,,,,0,V,2373.095000023837,,,,,211351.19999998808,211351.10000002384,208961.338,208964.90000003576,208978.005,211361.386,,white
,Fixation,canvas.Screen,3_61_0_0,2022-03-01T09:23:35.545Z,,,,1,VA,1633.366000000009,timeout,,,,212980.5,212978.085,211344.719,211352.5,211361.386,212994.752,,white
,Stimulus,canvas.Screen,3_61_0_1,2022-03-01T09:23:35.645Z,,,,1,VA,100.00199999997858,timeout,,,,213080.60000002384,213078.087,212978.085,212980.69999998808,212994.752,213094.754,,white
,Reaction,canvas.Screen,3_61_0_2,2022-03-01T09:23:35.895Z,,,,1,VA,230.54600001193467,response,,stim_detected,keydown(Space),213330.40000003576,213325.30000001192,213078.087,213080.80000001192,213094.754,213344.759,,white
,Trial,flow.Sequence,3_61_0,2022-03-01T09:23:35.895Z,,,,1,VA,1963.9140000119223,completion,,,,213330.69999998808,213325.30000001192,211344.719,211352.40000003576,211361.386,213344.759,,white
,Frame,canvas.Frame,3_61,2022-03-01T09:23:35.896Z,,,,1,VA,1969.4140000119223,,,,,213330.80000001192,213330.80000001192,211344.719,211351.5,211361.386,213344.759,,white
,Fixation,canvas.Screen,3_62_0_0,2022-03-01T09:23:37.879Z,,,,0,V,1983.3730000000214,timeout,,,,215314.19999998808,215311.465,213328.092,213331.69999998808,213344.759,215328.132,,white
,Stimulus,canvas.Screen,3_62_0_1,2022-03-01T09:23:37.979Z,,,,0,V,100.00199999997858,timeout,,,,215413.69999998808,215411.467,215311.465,215314.5,215328.132,215428.134,,white
,Reaction,canvas.Screen,3_62_0_2,2022-03-01T09:23:38.163Z,,,,0,V,166.06599998808815,response,,stim_detected,keydown(Space),215598.60000002384,215594.19999998808,215411.467,215414,215428.134,215611.471,,white
,Trial,flow.Sequence,3_62_0,2022-03-01T09:23:38.164Z,,,,0,V,2249.440999988088,completion,,,,215598.90000003576,215594.19999998808,213328.092,213331.60000002384,213344.759,215611.471,,white
,Frame,canvas.Frame,3_62,2022-03-01T09:23:38.164Z,,,,0,V,2254.241000000009,,,,,215599.10000002384,215599,213328.092,213330.90000003576,213344.759,215611.471,,white
,Fixation,canvas.Screen,3_63_0_0,2022-03-01T09:23:40.179Z,,,,1,VA,2016.707000000024,timeout,,,,217613.80000001192,217611.511,215594.804,215600.19999998808,215611.471,217628.178,,white
,Stimulus,canvas.Screen,3_63_0_1,2022-03-01T09:23:40.278Z,,,,1,VA,100.00199999997858,timeout,,,,217712.60000002384,217711.513,217611.511,217614.10000002384,217628.178,217728.18,,white
,Reaction,canvas.Screen,3_63_0_2,2022-03-01T09:23:40.478Z,,,,1,VA,179.92000002384884,response,,stim_detected,keydown(Space),217912.60000002384,217908.10000002384,217711.513,217712.80000001192,217728.18,217928.184,,white
,Trial,flow.Sequence,3_63_0,2022-03-01T09:23:40.478Z,,,,1,VA,2296.6290000238514,completion,,,,217912.90000003576,217908.10000002384,215594.804,215600,215611.471,217928.184,,white
,Frame,canvas.Frame,3_63,2022-03-01T09:23:40.478Z,,,,1,VA,2301.6290000238514,,,,,217913.19999998808,217913.10000002384,215594.804,215599.19999998808,215611.471,217928.184,,white
,Fixation,canvas.Screen,3_64_0_0,2022-03-01T09:23:42.645Z,,,,1,VA,2166.709999999992,timeout,,,,220080.19999998808,220078.227,217911.517,217914.19999998808,217928.184,220094.894,,white
,Stimulus,canvas.Screen,3_64_0_1,2022-03-01T09:23:42.746Z,,,,1,VA,100.00200000000768,timeout,,,,220180.90000003576,220178.229,220078.227,220080.40000003576,220094.894,220194.896,,white
,Reaction,canvas.Screen,3_64_0_2,2022-03-01T09:23:42.914Z,,,,1,VA,150.10399999999208,response,,stim_detected,keydown(Space),220349.30000001192,220345,220178.229,220181.19999998808,220194.896,220361.566,,white
,Trial,flow.Sequence,3_64_0,2022-03-01T09:23:42.915Z,,,,1,VA,2416.8159999999916,completion,,,,220349.60000002384,220345,217911.517,217914,217928.184,220361.566,,white
,Frame,canvas.Frame,3_64,2022-03-01T09:23:42.915Z,,,,1,VA,2421.5159999880707,,,,,220349.80000001192,220349.69999998808,217911.517,217913.30000001192,217928.184,220361.566,,white
,Fixation,canvas.Screen,3_65_0_0,2022-03-01T09:23:45.195Z,,,,1,VA,2283.3790000000154,timeout,,,,222630.30000001192,222628.278,220344.899,220350.90000003576,220361.566,222644.945,,white
,Stimulus,canvas.Screen,3_65_0_1,2022-03-01T09:23:45.296Z,,,,1,VA,100.00199999997858,timeout,,,,222730.60000002384,222728.28,222628.278,222630.5,222644.945,222744.947,,white
,Reaction,canvas.Screen,3_65_0_2,2022-03-01T09:23:45.464Z,,,,1,VA,148.95300003577722,response,,stim_detected,keydown(Space),222898.5,222893.90000003576,222728.28,222730.69999998808,222744.947,222911.617,,white
,Trial,flow.Sequence,3_65_0,2022-03-01T09:23:45.464Z,,,,1,VA,2532.334000035771,completion,,,,222898.80000001192,222893.90000003576,220344.899,220350.80000001192,220361.566,222911.617,,white
,Frame,canvas.Frame,3_65,2022-03-01T09:23:45.464Z,,,,1,VA,2537.334000035771,,,,,222898.90000003576,222898.90000003576,220344.899,220349.90000003576,220361.566,222911.617,,white
,Fixation,canvas.Screen,3_66_0_0,2022-03-01T09:23:46.978Z,,,,1,VA,1516.6970000000147,timeout,,,,224413.30000001192,224411.647,222894.95,222901.10000002384,222911.617,224428.314,,white
,Stimulus,canvas.Screen,3_66_0_1,2022-03-01T09:23:47.079Z,,,,1,VA,100.00199999997858,timeout,,,,224514.10000002384,224511.649,224411.647,224413.5,224428.314,224528.316,,white
,Reaction,canvas.Screen,3_66_0_2,2022-03-01T09:23:47.251Z,,,,1,VA,153.38399998808745,response,,stim_detected,keydown(Space),224686.30000001192,224681.69999998808,224511.649,224514.30000001192,224528.316,224694.986,,white
,Trial,flow.Sequence,3_66_0,2022-03-01T09:23:47.252Z,,,,1,VA,1770.0829999880807,completion,,,,224686.69999998808,224681.69999998808,222894.95,222901,222911.617,224694.986,,white
,Frame,canvas.Frame,3_66,2022-03-01T09:23:47.252Z,,,,1,VA,1775.0829999880807,,,,,224686.80000001192,224686.69999998808,222894.95,222899.10000002384,222911.617,224694.986,,white
,Fixation,canvas.Screen,3_67_0_0,2022-03-01T09:23:49.363Z,,,,0,V,2116.7090000000026,timeout,,,,226797.5,226795.028,224678.319,224687.90000003576,224694.986,226811.695,,white
,Stimulus,canvas.Screen,3_67_0_1,2022-03-01T09:23:49.463Z,,,,0,V,100.00199999997858,timeout,,,,226897.60000002384,226895.03,226795.028,226797.69999998808,226811.695,226911.697,,white
,Reaction,canvas.Screen,3_67_0_2,2022-03-01T09:23:49.693Z,,,,0,V,212.0029999880935,response,,stim_detected,keydown(Space),227127.90000003576,227123.69999998808,226895.03,226897.80000001192,226911.697,227145.035,,white
,Trial,flow.Sequence,3_67_0,2022-03-01T09:23:49.693Z,,,,0,V,2428.7139999880746,completion,,,,227128.19999998808,227123.69999998808,224678.319,224687.80000001192,224694.986,227145.035,,white
,Frame,canvas.Frame,3_67,2022-03-01T09:23:49.694Z,,,,0,V,2433.3140000119165,,,,,227128.40000003576,227128.30000001192,224678.319,224686.90000003576,224694.986,227145.035,,white
,Fixation,canvas.Screen,3_68_0_0,2022-03-01T09:23:51.562Z,,,,0,V,1866.703999999998,timeout,,,,228997,228995.072,227128.368,227129.5,227145.035,229011.739,,white
,Stimulus,canvas.Screen,3_68_0_1,2022-03-01T09:23:51.662Z,,,,0,V,100.00200000000768,timeout,,,,229097.19999998808,229095.074,228995.072,228997.19999998808,229011.739,229111.741,,white
,Reaction,canvas.Screen,3_68_0_2,2022-03-01T09:23:51.836Z,,,,0,V,154.6590000357537,response,,stim_detected,keydown(Space),229271.10000002384,229266.40000003576,229095.074,229097.40000003576,229111.741,229278.411,,white
,Trial,flow.Sequence,3_68_0,2022-03-01T09:23:51.837Z,,,,0,V,2121.3650000357593,completion,,,,229271.5,229266.40000003576,227128.368,227129.40000003576,227145.035,229278.411,,white
,Frame,canvas.Frame,3_68,2022-03-01T09:23:51.837Z,,,,0,V,2126.5650000238384,,,,,229271.69999998808,229271.60000002384,227128.368,227128.5,227145.035,229278.411,,white
,Fixation,canvas.Screen,3_69_0_0,2022-03-01T09:23:53.695Z,,,,0,V,1866.703999999998,timeout,,,,231129.60000002384,231128.448,229261.744,229272.80000001192,229278.411,231145.115,,white
,Stimulus,canvas.Screen,3_69_0_1,2022-03-01T09:23:53.796Z,,,,0,V,100.00200000000768,timeout,,,,231230.90000003576,231228.45,231128.448,231129.69999998808,231145.115,231245.117,,white
,Reaction,canvas.Screen,3_69_0_2,2022-03-01T09:23:53.993Z,,,,0,V,178.28300003576442,response,,stim_detected,keydown(Space),231427.69999998808,231423.40000003576,231228.45,231231.10000002384,231245.117,231445.121,,white
,Trial,flow.Sequence,3_69_0,2022-03-01T09:23:53.993Z,,,,0,V,2144.98900003577,completion,,,,231428,231423.40000003576,229261.744,229272.69999998808,229278.411,231445.121,,white
,Frame,canvas.Frame,3_69,2022-03-01T09:23:53.993Z,,,,0,V,2149.589000000007,,,,,231428.10000002384,231428,229261.744,229271.80000001192,229278.411,231445.121,,white
,Fixation,canvas.Screen,3_70_0_0,2022-03-01T09:23:56.146Z,,,,0,V,2150.042999999976,timeout,,,,233581.10000002384,233578.497,231428.454,231429.10000002384,231445.121,233595.164,,white
,Stimulus,canvas.Screen,3_70_0_1,2022-03-01T09:23:56.246Z,,,,0,V,100.00200000000768,timeout,,,,233680.60000002384,233678.499,233578.497,233581.30000001192,233595.164,233695.166,,white
,Reaction,canvas.Screen,3_70_0_2,2022-03-01T09:23:56.557Z,,,,0,V,291.9340000238444,response,,stim_detected,keydown(Space),233992,233987.10000002384,233678.499,233680.69999998808,233695.166,233995.172,,white
,Trial,flow.Sequence,3_70_0,2022-03-01T09:23:56.558Z,,,,0,V,2541.979000023828,completion,,,,233992.40000003576,233987.10000002384,231428.454,231429,231445.121,233995.172,,white
,Frame,canvas.Frame,3_70,2022-03-01T09:23:56.558Z,,,,0,V,2547.279000035749,,,,,233992.60000002384,233992.40000003576,231428.454,231428.30000001192,231445.121,233995.172,,white
,Fixation,canvas.Screen,3_71_0_0,2022-03-01T09:23:58.930Z,,,,1,A,2383.381000000023,timeout,,,,236364.40000003576,236361.886,233978.505,233993.60000002384,233995.172,236378.553,,grey
,Stimulus,canvas.Screen,3_71_0_1,2022-03-01T09:23:59.029Z,,,,1,A,100.00199999997858,timeout,,,,236463.80000001192,236461.888,236361.886,236364.60000002384,236378.553,236478.555,,grey
,Reaction,canvas.Screen,3_71_0_2,2022-03-01T09:23:59.282Z,,,,1,A,233.54500002384884,response,,stim_detected,keydown(Space),236716.60000002384,236712.10000002384,236461.888,236463.90000003576,236478.555,236728.56,,grey
,Trial,flow.Sequence,3_71_0,2022-03-01T09:23:59.282Z,,,,1,A,2716.9280000238505,completion,,,,236716.90000003576,236712.10000002384,233978.505,233993.5,233995.172,236728.56,,grey
,Frame,canvas.Frame,3_71,2022-03-01T09:23:59.283Z,,,,1,A,2721.7280000357714,,,,,236717.10000002384,236716.90000003576,233978.505,233992.69999998808,233995.172,236728.56,,grey
,Fixation,canvas.Screen,3_72_0_0,2022-03-01T09:24:00.930Z,,,,1,A,1650.0329999999958,timeout,,,,238364.40000003576,238361.926,236711.893,236718,236728.56,238378.593,,grey
,Stimulus,canvas.Screen,3_72_0_1,2022-03-01T09:24:01.029Z,,,,1,A,100.00200000000768,timeout,,,,238463.40000003576,238461.928,238361.926,238364.69999998808,238378.593,238478.595,,grey
,Reaction,canvas.Screen,3_72_0_2,2022-03-01T09:24:01.272Z,,,,1,A,223.40499999999884,response,,stim_detected,keydown(Space),238706.5,238702,238461.928,238463.60000002384,238478.595,238711.933,,grey
,Trial,flow.Sequence,3_72_0,2022-03-01T09:24:01.272Z,,,,1,A,1973.4400000000023,completion,,,,238706.80000001192,238702,236711.893,236718,236728.56,238711.933,,grey
,Frame,canvas.Frame,3_72,2022-03-01T09:24:01.273Z,,,,1,A,1978.3400000357651,,,,,238707,238706.90000003576,236711.893,236717.10000002384,236728.56,238711.933,,grey
,Fixation,canvas.Screen,3_73_0_0,2022-03-01T09:24:02.913Z,,,,1,VA,1650.0329999999958,timeout,,,,240347.69999998808,240345.299,238695.266,238708,238711.933,240361.966,,white
,Stimulus,canvas.Screen,3_73_0_1,2022-03-01T09:24:03.012Z,,,,1,VA,100.00200000000768,timeout,,,,240446.69999998808,240445.301,240345.299,240347.80000001192,240361.966,240461.968,,white
,Reaction,canvas.Screen,3_73_0_2,2022-03-01T09:24:03.236Z,,,,1,VA,203.9320000357693,response,,stim_detected,keydown(Space),240670.60000002384,240665.90000003576,240445.301,240446.80000001192,240461.968,240678.639,,white
,Trial,flow.Sequence,3_73_0,2022-03-01T09:24:03.237Z,,,,1,VA,1953.9670000357728,completion,,,,240671,240665.90000003576,238695.266,238707.90000003576,238711.933,240678.639,,white
,Frame,canvas.Frame,3_73,2022-03-01T09:24:03.237Z,,,,1,VA,1959.06700000001,,,,,240671.10000002384,240671,238695.266,238707.10000002384,238711.933,240678.639,,white
,Fixation,canvas.Screen,3_74_0_0,2022-03-01T09:24:04.914Z,,,,0,V,1683.3669999999984,timeout,,,,242347.90000003576,242345.339,240661.972,240672.19999998808,240678.639,242362.006,,white
,Stimulus,canvas.Screen,3_74_0_1,2022-03-01T09:24:05.014Z,,,,0,V,100.00200000000768,timeout,,,,242448.10000002384,242445.341,242345.339,242348.19999998808,242362.006,242462.008,,white
,Reaction,canvas.Screen,3_74_0_2,2022-03-01T09:24:05.237Z,,,,0,V,204.59200002384023,response,,stim_detected,keydown(Space),242671.19999998808,242666.60000002384,242445.341,242448.30000001192,242462.008,242678.679,,white
,Trial,flow.Sequence,3_74_0,2022-03-01T09:24:05.237Z,,,,0,V,1987.9610000238463,completion,,,,242671.5,242666.60000002384,240661.972,240672,240678.639,242678.679,,white
,Frame,canvas.Frame,3_74,2022-03-01T09:24:05.237Z,,,,0,V,1992.8610000000044,,,,,242671.60000002384,242671.5,240661.972,240671.30000001192,240678.639,242678.679,,white
,Fixation,canvas.Screen,3_75_0_0,2022-03-01T09:24:06.980Z,,,,0,V,1750.0350000000035,timeout,,,,244414.40000003576,244412.047,242662.012,242672.60000002384,242678.679,244428.714,,white
,Stimulus,canvas.Screen,3_75_0_1,2022-03-01T09:24:07.080Z,,,,0,V,100.00199999997858,timeout,,,,244514.5,244512.049,244412.047,244414.60000002384,244428.714,244528.716,,white
,Reaction,canvas.Screen,3_75_0_2,2022-03-01T09:24:07.263Z,,,,0,V,163.98399998809327,response,,stim_detected,keydown(Space),244697.19999998808,244692.69999998808,244512.049,244514.60000002384,244528.716,244712.053,,white
,Trial,flow.Sequence,3_75_0,2022-03-01T09:24:07.263Z,,,,0,V,2014.0209999880753,completion,,,,244697.40000003576,244692.69999998808,242662.012,242672.60000002384,242678.679,244712.053,,white
,Frame,canvas.Frame,3_75,2022-03-01T09:24:07.263Z,,,,0,V,2018.8209999999963,,,,,244697.60000002384,244697.5,242662.012,242671.69999998808,242678.679,244712.053,,white
,Fixation,canvas.Screen,3_76_0_0,2022-03-01T09:24:09.113Z,,,,0,V,1850.036999999982,timeout,,,,246547.40000003576,246545.423,244695.386,244698.60000002384,244712.053,246562.09,,white
,Stimulus,canvas.Screen,3_76_0_1,2022-03-01T09:24:09.212Z,,,,0,V,100.00200000000768,timeout,,,,246646.60000002384,246645.425,246545.423,246547.60000002384,246562.09,246662.092,,white
,Reaction,canvas.Screen,3_76_0_2,2022-03-01T09:24:09.429Z,,,,0,V,196.50800002383767,response,,stim_detected,keydown(Space),246862.90000003576,246858.60000002384,246645.425,246646.69999998808,246662.092,246878.763,,white
,Trial,flow.Sequence,3_76_0,2022-03-01T09:24:09.429Z,,,,0,V,2146.5470000238274,completion,,,,246863.30000001192,246858.60000002384,244695.386,244698.60000002384,244712.053,246878.763,,white
,Frame,canvas.Frame,3_76,2022-03-01T09:24:09.429Z,,,,0,V,2151.3470000357484,,,,,246863.5,246863.40000003576,244695.386,244697.69999998808,244712.053,246878.763,,white
,Fixation,canvas.Screen,3_77_0_0,2022-03-01T09:24:11.864Z,,,,1,VA,2433.3819999999832,timeout,,,,249297.90000003576,249295.478,246862.096,246864.60000002384,246878.763,249312.145,,white
,Stimulus,canvas.Screen,3_77_0_1,2022-03-01T09:24:11.962Z,,,,1,VA,100.00200000000768,timeout,,,,249396.5,249395.48,249295.478,249298.10000002384,249312.145,249412.147,,white
,Reaction,canvas.Screen,3_77_0_2,2022-03-01T09:24:12.149Z,,,,1,VA,166.25300003576558,response,,stim_detected,keydown(Space),249582.69999998808,249578.40000003576,249395.48,249396.80000001192,249412.147,249595.484,,white
,Trial,flow.Sequence,3_77_0,2022-03-01T09:24:12.149Z,,,,1,VA,2699.6370000357565,completion,,,,249583,249578.40000003576,246862.096,246864.5,246878.763,249595.484,,white
,Frame,canvas.Frame,3_77,2022-03-01T09:24:12.149Z,,,,1,VA,2704.3370000238356,,,,,249583.10000002384,249583.10000002384,246862.096,246863.60000002384,246878.763,249595.484,,white
,Fixation,canvas.Screen,3_78_0_0,2022-03-01T09:24:14.563Z,,,,0,V,2416.7149999999965,timeout,,,,251997.60000002384,251995.532,249578.817,249584.10000002384,249595.484,252012.199,,white
,Stimulus,canvas.Screen,3_78_0_1,2022-03-01T09:24:14.663Z,,,,0,V,100.00200000000768,timeout,,,,252097.19999998808,252095.534,251995.532,251997.80000001192,252012.199,252112.201,,white
,Reaction,canvas.Screen,3_78_0_2,2022-03-01T09:24:14.872Z,,,,0,V,188.99899998807814,response,,stim_detected,keydown(Space),252306.10000002384,252301.19999998808,252095.534,252097.40000003576,252112.201,252312.205,,white
,Trial,flow.Sequence,3_78_0,2022-03-01T09:24:14.872Z,,,,0,V,2705.7159999880823,completion,,,,252306.40000003576,252301.19999998808,249578.817,249584.10000002384,249595.484,252312.205,,white
,Frame,canvas.Frame,3_78,2022-03-01T09:24:14.873Z,,,,0,V,2711.0160000000033,,,,,252306.69999998808,252306.5,249578.817,249583.19999998808,249595.484,252312.205,,white
,Fixation,canvas.Screen,3_79_0_0,2022-03-01T09:24:16.747Z,,,,1,A,1883.3710000000137,timeout,,,,254181.19999998808,254178.909,252295.538,252307.69999998808,252312.205,254195.576,,grey
,Stimulus,canvas.Screen,3_79_0_1,2022-03-01T09:24:16.848Z,,,,1,A,100.00200000000768,timeout,,,,254281.5,254278.911,254178.909,254181.40000003576,254195.576,254295.578,,grey
,Reaction,canvas.Screen,3_79_0_2,2022-03-01T09:24:17.157Z,,,,1,A,290.52200002383324,response,,stim_detected,keydown(Space),254590.69999998808,254586.10000002384,254278.911,254281.69999998808,254295.578,254628.918,,grey
,Trial,flow.Sequence,3_79_0,2022-03-01T09:24:17.158Z,,,,1,A,2273.8950000238547,completion,,,,254591.90000003576,254586.10000002384,252295.538,252307.60000002384,252312.205,254628.918,,grey
,Frame,canvas.Frame,3_79,2022-03-01T09:24:17.158Z,,,,1,A,2279.795000000013,,,,,254592.19999998808,254592,252295.538,252306.69999998808,252312.205,254628.918,,grey
,Fixation,canvas.Screen,3_80_0_0,2022-03-01T09:24:19.664Z,,,,0,V,2483.3830000000016,timeout,,,,257097.80000001192,257095.634,254612.251,254593.30000001192,254628.918,257112.301,,white
,Stimulus,canvas.Screen,3_80_0_1,2022-03-01T09:24:19.764Z,,,,0,V,100.00200000000768,timeout,,,,257197.90000003576,257195.636,257095.634,257098.10000002384,257112.301,257212.303,,white
,Reaction,canvas.Screen,3_80_0_2,2022-03-01T09:24:20.010Z,,,,0,V,226.69699999998556,response,,stim_detected,keydown(Space),257443.90000003576,257439,257195.636,257198.19999998808,257212.303,257445.641,,white
,Trial,flow.Sequence,3_80_0,2022-03-01T09:24:20.011Z,,,,0,V,2810.081999999995,completion,,,,257444.40000003576,257439,254612.251,254593.19999998808,254628.918,257445.641,,white
,Frame,canvas.Frame,3_80,2022-03-01T09:24:20.011Z,,,,0,V,2815.6820000238367,,,,,257444.60000002384,257444.60000002384,254612.251,254592.30000001192,254628.918,257445.641,,white
,Fixation,canvas.Screen,3_81_0_0,2022-03-01T09:24:22.264Z,,,,1,A,2266.7119999999995,timeout,,,,259698.19999998808,259695.686,257428.974,257445.69999998808,257445.641,259712.353,,grey
,Stimulus,canvas.Screen,3_81_0_1,2022-03-01T09:24:22.364Z,,,,1,A,100.00200000000768,timeout,,,,259797.69999998808,259795.688,259695.686,259698.40000003576,259712.353,259812.355,,grey
,Reaction,canvas.Screen,3_81_0_2,2022-03-01T09:24:22.614Z,,,,1,A,230.5450000357523,response,,stim_detected,keydown(Space),260047.5,260042.90000003576,259795.688,259797.90000003576,259812.355,260062.36,,grey
,Trial,flow.Sequence,3_81_0,2022-03-01T09:24:22.614Z,,,,1,A,2597.2590000357595,completion,,,,260047.80000001192,260042.90000003576,257428.974,257445.69999998808,257445.641,260062.36,,grey
,Frame,canvas.Frame,3_81,2022-03-01T09:24:22.614Z,,,,1,A,2602.2590000357595,,,,,260048,260047.90000003576,257428.974,257444.69999998808,257445.641,260062.36,,grey
,Fixation,canvas.Screen,3_82_0_0,2022-03-01T09:24:24.131Z,,,,0,V,1516.6970000000147,timeout,,,,261564.90000003576,261562.39,260045.693,260049.90000003576,260062.36,261579.057,,white
,Stimulus,canvas.Screen,3_82_0_1,2022-03-01T09:24:24.230Z,,,,0,V,100.00200000000768,timeout,,,,261663.80000001192,261662.392,261562.39,261565.19999998808,261579.057,261679.059,,white
,Reaction,canvas.Screen,3_82_0_2,2022-03-01T09:24:24.523Z,,,,0,V,273.6409999880707,response,,stim_detected,keydown(Space),261957.19999998808,261952.69999998808,261662.392,261664,261679.059,261962.398,,white
,Trial,flow.Sequence,3_82_0,2022-03-01T09:24:24.524Z,,,,0,V,1890.339999988093,completion,,,,261957.5,261952.69999998808,260045.693,260049.80000001192,260062.36,261962.398,,white
,Frame,canvas.Frame,3_82,2022-03-01T09:24:24.524Z,,,,0,V,1895.2400000238558,,,,,261957.69999998808,261957.60000002384,260045.693,260048.10000002384,260062.36,261962.398,,white
,Fixation,canvas.Screen,3_83_0_0,2022-03-01T09:24:26.264Z,,,,1,A,1750.0350000000326,timeout,,,,263697.8000000119,263695.766,261945.731,261958.69999998808,261962.398,263712.433,,grey
,Stimulus,canvas.Screen,3_83_0_1,2022-03-01T09:24:26.365Z,,,,1,A,100.00199999997858,timeout,,,,263798.40000003576,263795.768,263695.766,263697.90000003576,263712.433,263812.435,,grey
,Reaction,canvas.Screen,3_83_0_2,2022-03-01T09:24:26.653Z,,,,1,A,268.1650000238442,response,,stim_detected,keydown(Space),264086.40000003576,264080.60000002384,263795.768,263798.5,263812.435,264129.108,,grey
,Trial,flow.Sequence,3_83_0,2022-03-01T09:24:26.653Z,,,,1,A,2118.2020000238554,completion,,,,264086.8000000119,264080.60000002384,261945.731,261958.60000002384,261962.398,264129.108,,grey
,Frame,canvas.Frame,3_83,2022-03-01T09:24:26.653Z,,,,1,A,2124.5020000357763,,,,,264087,264086.90000003576,261945.731,261957.80000001192,261962.398,264129.108,,grey
,Fixation,canvas.Screen,3_84_0_0,2022-03-01T09:24:29.015Z,,,,0,V,2333.3800000000047,timeout,,,,266448.60000002384,266445.821,264112.441,264088.1999999881,264129.108,266462.488,,white
,Stimulus,canvas.Screen,3_84_0_1,2022-03-01T09:24:29.115Z,,,,0,V,100.00199999997858,timeout,,,,266548.1999999881,266545.823,266445.821,266448.90000003576,266462.488,266562.49,,white
,Reaction,canvas.Screen,3_84_0_2,2022-03-01T09:24:29.346Z,,,,0,V,212.0100000000093,response,,stim_detected,keydown(Space),266779.5,266774.5,266545.823,266548.40000003576,266562.49,266795.828,,white
,Trial,flow.Sequence,3_84_0,2022-03-01T09:24:29.346Z,,,,0,V,2645.3919999999925,completion,,,,266779.8000000119,266774.5,264112.441,264088.10000002384,264129.108,266795.828,,white
,Frame,canvas.Frame,3_84,2022-03-01T09:24:29.346Z,,,,0,V,2650.7920000357553,,,,,266780,266779.90000003576,264112.441,264087.10000002384,264129.108,266795.828,,white
,Fixation,canvas.Screen,3_85_0_0,2022-03-01T09:24:31.298Z,,,,1,A,1950.039000000048,timeout,,,,268731.6999999881,268729.2,266779.161,266781.10000002384,266795.828,268745.867,,grey
,Stimulus,canvas.Screen,3_85_0_1,2022-03-01T09:24:31.398Z,,,,1,A,100.00199999997858,timeout,,,,268831.60000002384,268829.202,268729.2,268731.90000003576,268745.867,268845.869,,grey
,Reaction,canvas.Screen,3_85_0_2,2022-03-01T09:24:31.958Z,,,,1,A,537.2310000238358,response,,stim_detected,keydown(Space),269391.8000000119,269383.10000002384,268829.202,268831.8000000119,268845.869,269395.88,,grey
,Trial,flow.Sequence,3_85_0,2022-03-01T09:24:31.958Z,,,,1,A,2587.2720000238623,completion,,,,269391.8000000119,269383.10000002384,266779.161,266781,266795.828,269395.88,,grey
,Frame,canvas.Frame,3_85,2022-03-01T09:24:31.958Z,,,,1,A,2595.9720000119414,,,,,269391.90000003576,269391.8000000119,266779.161,266780.10000002384,266795.828,269395.88,,grey
,Fixation,canvas.Screen,3_86_0_0,2022-03-01T09:24:34.430Z,,,,1,VA,2483.3829999999725,timeout,,,,271863.90000003576,271862.596,269379.213,269392.5,269395.88,271879.263,,white
,Stimulus,canvas.Screen,3_86_0_1,2022-03-01T09:24:34.531Z,,,,1,VA,100.00200000003679,timeout,,,,271964.60000002384,271962.598,271862.596,271864.10000002384,271879.263,271979.265,,white
,Reaction,canvas.Screen,3_86_0_2,2022-03-01T09:24:34.757Z,,,,1,VA,205.9349999880651,response,,stim_detected,keydown(Space),272190,272185.1999999881,271962.598,271964.8000000119,271979.265,272195.936,,white
,Trial,flow.Sequence,3_86_0,2022-03-01T09:24:34.757Z,,,,1,VA,2789.3199999880744,completion,,,,272190.3000000119,272185.1999999881,269379.213,269392.5,269395.88,272195.936,,white
,Frame,canvas.Frame,3_86,2022-03-01T09:24:34.757Z,,,,1,VA,2794.4200000119163,,,,,272190.40000003576,272190.3000000119,269379.213,269392,269395.88,272195.936,,white
,Fixation,canvas.Screen,3_87_0_0,2022-03-01T09:24:37.082Z,,,,0,V,2333.3800000000047,timeout,,,,274515,274512.649,272179.269,272191.60000002384,272195.936,274529.316,,white
,Stimulus,canvas.Screen,3_87_0_1,2022-03-01T09:24:37.181Z,,,,0,V,100.00200000003679,timeout,,,,274614.8000000119,274612.651,274512.649,274515.5,274529.316,274629.318,,white
,Reaction,canvas.Screen,3_87_0_2,2022-03-01T09:24:37.524Z,,,,0,V,323.78200002381345,response,,stim_detected,keydown(Space),274957.8000000119,274953.10000002384,274612.651,274615,274629.318,274962.658,,white
,Trial,flow.Sequence,3_87_0,2022-03-01T09:24:37.525Z,,,,0,V,2757.164000023855,completion,,,,274958.10000002384,274953.10000002384,272179.269,272191.5,272195.936,274962.658,,white
,Frame,canvas.Frame,3_87,2022-03-01T09:24:37.525Z,,,,0,V,2762.263999988092,,,,,274958.3000000119,274958.1999999881,272179.269,272190.60000002384,272195.936,274962.658,,white
,Fixation,canvas.Screen,3_88_0_0,2022-03-01T09:24:39.131Z,,,,0,V,1616.6990000000224,timeout,,,,276564.60000002384,276562.69,274945.991,274959.3000000119,274962.658,276579.357,,white
,Stimulus,canvas.Screen,3_88_0_1,2022-03-01T09:24:39.231Z,,,,0,V,100.00199999997858,timeout,,,,276664.1999999881,276662.692,276562.69,276564.8000000119,276579.357,276679.359,,white
,Reaction,canvas.Screen,3_88_0_2,2022-03-01T09:24:39.433Z,,,,0,V,182.54100003576605,response,,stim_detected,keydown(Space),276866.1999999881,276861.90000003576,276662.692,276664.40000003576,276679.359,276879.363,,white
,Trial,flow.Sequence,3_88_0,2022-03-01T09:24:39.433Z,,,,0,V,1899.242000035767,completion,,,,276866.5,276861.90000003576,274945.991,274959.3000000119,274962.658,276879.363,,white
,Frame,canvas.Frame,3_88,2022-03-01T09:24:39.433Z,,,,0,V,1903.8420000000042,,,,,276866.6999999881,276866.5,274945.991,274958.5,274962.658,276879.363,,white
,Fixation,canvas.Screen,3_89_0_0,2022-03-01T09:24:41.548Z,,,,0,V,2116.7089999999735,timeout,,,,278981,278979.405,276862.696,276867.6999999881,276879.363,278996.072,,white
,Stimulus,canvas.Screen,3_89_0_1,2022-03-01T09:24:41.649Z,,,,0,V,100.00200000003679,timeout,,,,279082,279079.407,278979.405,278981.10000002384,278996.072,279096.074,,white
,Reaction,canvas.Screen,3_89_0_2,2022-03-01T09:24:41.848Z,,,,0,V,180.72600001189858,response,,stim_detected,keydown(Space),279281.1999999881,279276.8000000119,279079.407,279082.1999999881,279096.074,279296.078,,white
,Trial,flow.Sequence,3_89_0,2022-03-01T09:24:41.848Z,,,,0,V,2397.437000011909,completion,,,,279281.5,279276.8000000119,276862.696,276867.60000002384,276879.363,279296.078,,white
,Frame,canvas.Frame,3_89,2022-03-01T09:24:41.848Z,,,,0,V,2402.2370000238298,,,,,279281.6999999881,279281.60000002384,276862.696,276866.8000000119,276879.363,279296.078,,white
,Fixation,canvas.Screen,3_90_0_0,2022-03-01T09:24:44.116Z,,,,1,A,2266.7119999999995,timeout,,,,281549,281546.123,279279.411,279282.6999999881,279296.078,281562.79,,grey
,Stimulus,canvas.Screen,3_90_0_1,2022-03-01T09:24:44.215Z,,,,1,A,100.00200000003679,timeout,,,,281648.60000002384,281646.125,281546.123,281549.10000002384,281562.79,281662.792,,grey
,Reaction,canvas.Screen,3_90_0_2,2022-03-01T09:24:44.534Z,,,,1,A,298.90799998806324,response,,stim_detected,keydown(Space),281966.6999999881,281961.6999999881,281646.125,281648.6999999881,281662.792,281979.465,,grey
,Trial,flow.Sequence,3_90_0,2022-03-01T09:24:44.534Z,,,,1,A,2665.6219999880996,completion,,,,281967.10000002384,281961.6999999881,279279.411,279282.6999999881,279296.078,281979.465,,grey
,Frame,canvas.Frame,3_90,2022-03-01T09:24:44.534Z,,,,1,A,2671.1219999880996,,,,,281967.1999999881,281967.1999999881,279279.411,279281.8000000119,279296.078,281979.465,,grey
,Fixation,canvas.Screen,3_91_0_0,2022-03-01T09:24:46.699Z,,,,1,VA,2166.7099999999627,timeout,,,,284131.8000000119,284129.508,281962.798,281968.1999999881,281979.465,284146.175,,white
,Stimulus,canvas.Screen,3_91_0_1,2022-03-01T09:24:46.799Z,,,,1,VA,100.00200000003679,timeout,,,,284232.10000002384,284229.51,284129.508,284132,284146.175,284246.177,,white
,Reaction,canvas.Screen,3_91_0_2,2022-03-01T09:24:47.011Z,,,,1,VA,193.22300003573764,response,,stim_detected,keydown(Space),284444.10000002384,284439.40000003576,284229.51,284232.1999999881,284246.177,284446.181,,white
,Trial,flow.Sequence,3_91_0,2022-03-01T09:24:47.011Z,,,,1,VA,2459.935000035737,completion,,,,284444.40000003576,284439.40000003576,281962.798,281968.1999999881,281979.465,284446.181,,white
,Frame,canvas.Frame,3_91,2022-03-01T09:24:47.011Z,,,,1,VA,2465.0349999999744,,,,,284444.60000002384,284444.5,281962.798,281967.3000000119,281979.465,284446.181,,white
,Fixation,canvas.Screen,3_92_0_0,2022-03-01T09:24:49.232Z,,,,1,VA,2233.378000000026,timeout,,,,286664.90000003576,286662.892,284429.514,284445.60000002384,284446.181,286679.559,,white
,Stimulus,canvas.Screen,3_92_0_1,2022-03-01T09:24:49.332Z,,,,1,VA,100.00199999997858,timeout,,,,286764.6999999881,286762.894,286662.892,286665.10000002384,286679.559,286779.561,,white
,Reaction,canvas.Screen,3_92_0_2,2022-03-01T09:24:49.550Z,,,,1,VA,198.6389999880921,response,,stim_detected,keydown(Space),286983.40000003576,286978.1999999881,286762.894,286764.90000003576,286779.561,286996.232,,white
,Trial,flow.Sequence,3_92_0,2022-03-01T09:24:49.551Z,,,,1,VA,2532.0189999880968,completion,,,,286983.8000000119,286978.1999999881,284429.514,284445.5,284446.181,286996.232,,white
,Frame,canvas.Frame,3_92,2022-03-01T09:24:49.551Z,,,,1,VA,2537.6190000119386,,,,,286983.90000003576,286983.8000000119,284429.514,284444.6999999881,284446.181,286996.232,,white
,Fixation,canvas.Screen,3_93_0_0,2022-03-01T09:24:51.316Z,,,,0,V,1766.7019999999902,timeout,,,,288748.6999999881,288746.267,286979.565,286984.90000003576,286996.232,288762.934,,white
,Stimulus,canvas.Screen,3_93_0_1,2022-03-01T09:24:51.415Z,,,,0,V,100.00199999997858,timeout,,,,288848.10000002384,288846.269,288746.267,288748.90000003576,288762.934,288862.936,,white
,Reaction,canvas.Screen,3_93_0_2,2022-03-01T09:24:51.634Z,,,,0,V,199.2639999880921,response,,stim_detected,keydown(Space),289066.6999999881,289062.1999999881,288846.269,288848.40000003576,288862.936,289079.607,,white
,Trial,flow.Sequence,3_93_0,2022-03-01T09:24:51.634Z,,,,0,V,2065.967999988061,completion,,,,289067,289062.1999999881,286979.565,286984.90000003576,286996.232,289079.607,,white
,Frame,canvas.Frame,3_93,2022-03-01T09:24:51.634Z,,,,0,V,2070.8680000238237,,,,,289067.1999999881,289067.10000002384,286979.565,286984.10000002384,286996.232,289079.607,,white
,Fixation,canvas.Screen,3_94_0_0,2022-03-01T09:24:53.932Z,,,,1,A,2300.045999999973,timeout,,,,291365.3000000119,291362.986,289062.94,289068.1999999881,289079.607,291379.653,,grey
,Stimulus,canvas.Screen,3_94_0_1,2022-03-01T09:24:54.033Z,,,,1,A,100.00200000003679,timeout,,,,291465.5,291462.988,291362.986,291365.5,291379.653,291479.655,,grey
,Reaction,canvas.Screen,3_94_0_2,2022-03-01T09:24:54.299Z,,,,1,A,247.34499999997206,response,,stim_detected,keydown(Space),291731.8000000119,291727,291462.988,291465.6999999881,291479.655,291746.327,,grey
,Trial,flow.Sequence,3_94_0,2022-03-01T09:24:54.299Z,,,,1,A,2647.392999999982,completion,,,,291732,291727,289062.94,289068.1999999881,289079.607,291746.327,,grey
,Frame,canvas.Frame,3_94,2022-03-01T09:24:54.299Z,,,,1,A,2652.4930000238237,,,,,291732.10000002384,291732.10000002384,289062.94,289067.3000000119,289079.607,291746.327,,grey
,Fixation,canvas.Screen,3_95_0_0,2022-03-01T09:24:56.682Z,,,,1,VA,2383.380999999994,timeout,,,,294115.1999999881,294113.041,291729.66,291733.1999999881,291746.327,294129.708,,white
,Stimulus,canvas.Screen,3_95_0_1,2022-03-01T09:24:56.783Z,,,,1,VA,100.00200000003679,timeout,,,,294215.60000002384,294213.043,294113.041,294115.40000003576,294129.708,294229.71,,white
,Reaction,canvas.Screen,3_95_0_2,2022-03-01T09:24:56.991Z,,,,1,VA,189.28999999997905,response,,stim_detected,keydown(Space),294423.5,294419,294213.043,294215.6999999881,294229.71,294429.714,,white
,Trial,flow.Sequence,3_95_0,2022-03-01T09:24:56.991Z,,,,1,VA,2672.67300000001,completion,,,,294424,294419,291729.66,291733.10000002384,291746.327,294429.714,,white
,Frame,canvas.Frame,3_95,2022-03-01T09:24:56.991Z,,,,1,VA,2677.67300000001,,,,,294424.1999999881,294424,291729.66,291732.3000000119,291746.327,294429.714,,white
,Fixation,canvas.Screen,3_96_0_0,2022-03-01T09:24:58.583Z,,,,0,V,1600.0320000000065,timeout,,,,296015.8000000119,296013.079,294413.047,294425.1999999881,294429.714,296029.746,,white
,Stimulus,canvas.Screen,3_96_0_1,2022-03-01T09:24:58.682Z,,,,0,V,100.00200000003679,timeout,,,,296114.60000002384,296113.081,296013.079,296016,296029.746,296129.748,,white
,Reaction,canvas.Screen,3_96_0_2,2022-03-01T09:24:58.916Z,,,,0,V,215.15200003574137,response,,stim_detected,keydown(Space),296349.1999999881,296344.90000003576,296113.081,296114.6999999881,296129.748,296363.086,,white
,Trial,flow.Sequence,3_96_0,2022-03-01T09:24:58.917Z,,,,0,V,1915.1860000357847,completion,,,,296349.5,296344.90000003576,294413.047,294425.1999999881,294429.714,296363.086,,white
,Frame,canvas.Frame,3_96,2022-03-01T09:24:58.917Z,,,,0,V,1919.7860000000219,,,,,296349.60000002384,296349.5,294413.047,294424.3000000119,294429.714,296363.086,,white
,Fixation,canvas.Screen,3_97_0_0,2022-03-01T09:25:00.849Z,,,,1,A,1933.371999999974,timeout,,,,298281.8000000119,298279.791,296346.419,296351.60000002384,296363.086,298296.458,,grey
,Stimulus,canvas.Screen,3_97_0_1,2022-03-01T09:25:00.949Z,,,,1,A,100.00200000003679,timeout,,,,298381.1999999881,298379.793,298279.791,298282,298296.458,298396.46,,grey
,Reaction,canvas.Screen,3_97_0_2,2022-03-01T09:25:01.256Z,,,,1,A,287.2399999880581,response,,stim_detected,keydown(Space),298688.40000003576,298683.6999999881,298379.793,298381.5,298396.46,298696.466,,grey
,Trial,flow.Sequence,3_97_0,2022-03-01T09:25:01.256Z,,,,1,A,2320.613999988069,completion,,,,298688.6999999881,298683.6999999881,296346.419,296351.40000003576,296363.086,298696.466,,grey
,Frame,canvas.Frame,3_97,2022-03-01T09:25:01.256Z,,,,1,A,2325.7140000119107,,,,,298688.8000000119,298688.8000000119,296346.419,296349.6999999881,296363.086,298696.466,,grey
,Fixation,canvas.Screen,3_98_0_0,2022-03-01T09:25:03.599Z,,,,1,A,2350.0469999999623,timeout,,,,301031.8000000119,301029.846,298679.799,298689.90000003576,298696.466,301046.513,,grey
,Stimulus,canvas.Screen,3_98_0_1,2022-03-01T09:25:03.699Z,,,,1,A,100.00200000003679,timeout,,,,301132,301129.848,301029.846,301032,301046.513,301146.515,,grey
,Reaction,canvas.Screen,3_98_0_2,2022-03-01T09:25:03.941Z,,,,1,A,223.1849999880651,response,,stim_detected,keydown(Space),301373.90000003576,301369.6999999881,301129.848,301132.1999999881,301146.515,301379.853,,grey
,Trial,flow.Sequence,3_98_0,2022-03-01T09:25:03.942Z,,,,1,A,2673.233999988064,completion,,,,301374.3000000119,301369.6999999881,298679.799,298689.8000000119,298696.466,301379.853,,grey
,Frame,canvas.Frame,3_98,2022-03-01T09:25:03.942Z,,,,1,A,2677.934000035748,,,,,301374.5,301374.40000003576,298679.799,298688.90000003576,298696.466,301379.853,,grey
,Fixation,canvas.Screen,3_99_0_0,2022-03-01T09:25:06.349Z,,,,0,V,2416.7150000000256,timeout,,,,303781.8000000119,303779.901,301363.186,301375.6999999881,301379.853,303796.568,,white
,Stimulus,canvas.Screen,3_99_0_1,2022-03-01T09:25:06.450Z,,,,0,V,100.00199999997858,timeout,,,,303882.60000002384,303879.903,303779.901,303782.10000002384,303796.568,303896.57,,white
,Reaction,canvas.Screen,3_99_0_2,2022-03-01T09:25:06.629Z,,,,0,V,160.8300000357558,response,,stim_detected,keydown(Space),304061.8000000119,304057.40000003576,303879.903,303882.8000000119,303896.57,304113.241,,white
,Trial,flow.Sequence,3_99_0,2022-03-01T09:25:06.630Z,,,,0,V,2677.54700003576,completion,,,,304062,304057.40000003576,301363.186,301375.60000002384,301379.853,304113.241,,white
,Frame,canvas.Frame,3_99,2022-03-01T09:25:06.630Z,,,,0,V,2682.247000023839,,,,,304062.1999999881,304062.10000002384,301363.186,301374.5,301379.853,304113.241,,white
,Loop,flow.Loop,3,2022-03-01T09:25:06.630Z,,,,,,233186.85700002383,completion,,,,304062.5,304062.10000002384,70858.576,70860.80000001192,70875.243,304113.241,,
,end,html.Page,4,2022-03-01T09:25:08.480Z,,,,,,1798.3590000238619,form submission,,,,305912.3000000119,305911.60000002384,304096.574,304062.6999999881,304113.241,305913.277,,
,root,flow.Sequence,,2022-03-01T09:25:08.481Z,,,,,,304737.75100002385,completion,,,,305913.40000003576,305911.60000002384,1157.182,1140.5,1173.849,305913.277,,