id,sender,sender_type,sender_id,timestamp,meta,,age,aud,condition,duration,ended_on,gender,response,response_action,time_commit,time_end,time_render,time_run,time_show,time_switch,url,vis
Chas Tenenbaum,Hello,html.Page,0,2022-03-01T10:13:56.979Z,"{""labjs_version"":""20.2.4"",""labjs_build"":{""flavor"":""development"",""commit"":""f5b4a49f956347addd546a832a3327688c2c0fef""},""location"":""https://labjs.felixhenninger.com/api/labjs_preview/index.html"",""userAgent"":""Mozilla/5.0 (Macintosh; Intel Mac OS X 10_15_7) AppleWebKit/537.36 (KHTML, like Gecko) Chrome/98.0.4758.80 Safari/537.36"",""platform"":""MacIntel"",""language"":""de-DE"",""locale"":""de"",""timeZone"":""Europe/Berlin"",""timezoneOffset"":-60,""screen_width"":1440,""screen_height"":900,""scroll_width"":1440,""scroll_height"":708,""window_innerWidth"":1440,""window_innerHeight"":756,""devicePixelRatio"":1}",,30,,,8293.125,form submission,male,,,9461.899999976158,9461,1067.873,1087.300000011921,1167.875,9451.374,{},
,Instructions,html.Page,1,2022-03-01T10:13:57.962Z,,,,,,992.6260000000002,form submission,,,,10444.599999964237,10444,9434.707,9462.399999976158,9451.374,10451.394,,
,Change Background,canvas.Screen,2,2022-03-01T10:14:00.955Z,,,,,,3000.0599999999995,timeout,,,,13438.099999964237,13434.787,10434.727,10444.800000011921,10451.394,13451.454,,
,Fixation,canvas.Screen,3_0_0_0,2022-03-01T10:14:03.305Z,,,,0,V,2350.0470000000005,timeout,,,,15787.699999988079,15784.834,13434.787,13439.5,13451.454,15801.501,,white
,Stimulus,canvas.Screen,3_0_0_1,2022-03-01T10:14:03.405Z,,,,0,V,100.00200000000041,timeout,,,,15887.300000011921,15884.836,15784.834,15788,15801.501,15901.503,,white
,Reaction,canvas.Screen,3_0_0_2,2022-03-01T10:14:03.657Z,,,,0,V,219.0969999642366,response,,stim_detected,keydown(Space),16139.599999964237,16120.599999964237,15884.836,15887.599999964237,15901.503,16134.841,,white
,Trial,flow.Sequence,3_0_0,2022-03-01T10:14:03.657Z,,,,0,V,2669.1459999642375,completion,,,,16139.899999976158,16120.599999964237,13434.787,13439.399999976158,13451.454,16134.841,,white
,Frame,canvas.Frame,3_0,2022-03-01T10:14:03.658Z,,,,0,V,2688.5460000000003,,,,,16140,16140,13434.787,13438.300000011921,13451.454,16134.841,,white
,Fixation,canvas.Screen,3_1_0_0,2022-03-01T10:14:05.338Z,,,,1,VA,1700.0339999999997,timeout,,,,17820.80000001192,17818.208,16118.174,16140.699999988079,16134.841,17834.875,,white
,Stimulus,canvas.Screen,3_1_0_1,2022-03-01T10:14:05.438Z,,,,1,VA,100.00200000000041,timeout,,,,17920.099999964237,17918.21,17818.208,17821.5,17834.875,17934.877,,white
,Reaction,canvas.Screen,3_1_0_2,2022-03-01T10:14:05.685Z,,,,1,VA,227.42300001192052,response,,stim_detected,keydown(Space),18167.099999964237,18162.30000001192,17918.21,17920.30000001192,17934.877,18184.882,,white
,Trial,flow.Sequence,3_1_0,2022-03-01T10:14:05.685Z,,,,1,VA,2027.4590000119206,completion,,,,18167.80000001192,18162.30000001192,16118.174,16140.699999988079,16134.841,18184.882,,white
,Frame,canvas.Frame,3_1,2022-03-01T10:14:05.686Z,,,,1,VA,2032.9590000119206,,,,,18168.099999964237,18167.80000001192,16118.174,16140.099999964237,16134.841,18184.882,,white
,Fixation,canvas.Screen,3_2_0_0,2022-03-01T10:14:07.538Z,,,,0,V,1850.0370000000003,timeout,,,,20020.899999976158,20018.252,18168.215,18169.599999964237,18184.882,20034.919,,white
,Stimulus,canvas.Screen,3_2_0_1,2022-03-01T10:14:07.638Z,,,,0,V,100.00199999999677,timeout,,,,20120.19999998808,20118.254,20018.252,20021.099999964237,20034.919,20134.921,,white
,Reaction,canvas.Screen,3_2_0_2,2022-03-01T10:14:07.856Z,,,,0,V,198.37900001192247,response,,stim_detected,keydown(Space),20338.30000001192,20333.30000001192,20118.254,20120.30000001192,20134.921,20351.592,,white
,Trial,flow.Sequence,3_2_0,2022-03-01T10:14:07.856Z,,,,0,V,2148.4180000119195,completion,,,,20338.69999998808,20333.30000001192,18168.215,18169.5,18184.882,20351.592,,white
,Frame,canvas.Frame,3_2,2022-03-01T10:14:07.856Z,,,,0,V,2153.8179999880776,,,,,20338.899999976158,20338.69999998808,18168.215,18168.19999998808,18184.882,20351.592,,white
,Fixation,canvas.Screen,3_3_0_0,2022-03-01T10:14:09.405Z,,,,1,A,1550.030999999999,timeout,,,,21887.30000001192,21884.956,20334.925,20340.099999964237,20351.592,21901.623,,grey
,Stimulus,canvas.Screen,3_3_0_1,2022-03-01T10:14:09.505Z,,,,1,A,100.00200000000041,timeout,,,,21987.399999976158,21984.958,21884.956,21887.399999976158,21901.623,22001.625,,grey
,Reaction,canvas.Screen,3_3_0_2,2022-03-01T10:14:09.849Z,,,,1,A,325.4749999642372,response,,stim_detected,keydown(Space),22331.69999998808,22327.099999964237,21984.958,21987.599999964237,22001.625,22334.965,,grey
,Trial,flow.Sequence,3_3_0,2022-03-01T10:14:09.850Z,,,,1,A,1975.5079999642367,completion,,,,22332,22327.099999964237,20334.925,20340,20351.592,22334.965,,grey
,Frame,canvas.Frame,3_3,2022-03-01T10:14:09.850Z,,,,1,A,1980.5079999642367,,,,,22332.19999998808,22332.099999964237,20334.925,20339,20351.592,22334.965,,grey
,Fixation,canvas.Screen,3_4_0_0,2022-03-01T10:14:11.638Z,,,,1,VA,1800.036,timeout,,,,24119.899999976158,24118.334,22318.298,22333.30000001192,22334.965,24135.001,,white
,Stimulus,canvas.Screen,3_4_0_1,2022-03-01T10:14:11.739Z,,,,1,VA,100.00200000000041,timeout,,,,24221.099999964237,24218.336,24118.334,24120.099999964237,24135.001,24235.003,,white
,Reaction,canvas.Screen,3_4_0_2,2022-03-01T10:14:11.893Z,,,,1,VA,134.9969999999994,response,,stim_detected,keydown(Space),24374.899999976158,24370,24218.336,24221.399999976158,24235.003,24385.006,,white
,Trial,flow.Sequence,3_4_0,2022-03-01T10:14:11.893Z,,,,1,VA,2035.0349999999999,completion,,,,24375.30000001192,24370,22318.298,22333.30000001192,22334.965,24385.006,,white
,Frame,canvas.Frame,3_4,2022-03-01T10:14:11.893Z,,,,1,VA,2040.434999976158,,,,,24375.80000001192,24375.399999976158,22318.298,22332.30000001192,22334.965,24385.006,,white
,Fixation,canvas.Screen,3_5_0_0,2022-03-01T10:14:13.639Z,,,,1,VA,1750.0349999999999,timeout,,,,26120.899999976158,26118.374,24368.339,24377,24385.006,26135.041,,white
,Stimulus,canvas.Screen,3_5_0_1,2022-03-01T10:14:13.739Z,,,,1,VA,100.00200000000041,timeout,,,,26220.899999976158,26218.376,26118.374,26122.30000001192,26135.041,26235.043,,white
,Reaction,canvas.Screen,3_5_0_2,2022-03-01T10:14:13.968Z,,,,1,VA,210.85699997615666,response,,stim_detected,keydown(Space),26450.5,26445.899999976158,26218.376,26221.19999998808,26235.043,26468.381,,white
,Trial,flow.Sequence,3_5_0,2022-03-01T10:14:13.969Z,,,,1,VA,2060.893999976157,completion,,,,26450.899999976158,26445.899999976158,24368.339,24376.899999976158,24385.006,26468.381,,white
,Frame,canvas.Frame,3_5,2022-03-01T10:14:13.969Z,,,,1,VA,2065.893999976157,,,,,26451.099999964237,26450.899999976158,24368.339,24375.899999976158,24385.006,26468.381,,white
,Fixation,canvas.Screen,3_6_0_0,2022-03-01T10:14:15.756Z,,,,1,A,1783.3689999999988,timeout,,,,28237.80000001192,28235.083,26451.714,26452.30000001192,26468.381,28251.75,,grey
,Stimulus,canvas.Screen,3_6_0_1,2022-03-01T10:14:15.855Z,,,,1,A,100.00200000000041,timeout,,,,28337.30000001192,28335.085,28235.083,28238,28251.75,28351.752,,grey
,Reaction,canvas.Screen,3_6_0_2,2022-03-01T10:14:16.168Z,,,,1,A,294.0480000119205,response,,stim_detected,keydown(Space),28650.399999976158,28645.80000001192,28335.085,28337.399999976158,28351.752,28651.758,,grey
,Trial,flow.Sequence,3_6_0,2022-03-01T10:14:16.168Z,,,,1,A,2177.4190000119197,completion,,,,28650.599999964237,28645.80000001192,26451.714,26452.19999998808,26468.381,28651.758,,grey
,Frame,canvas.Frame,3_6,2022-03-01T10:14:16.169Z,,,,1,A,2182.318999988078,,,,,28650.899999976158,28650.69999998808,26451.714,26451.30000001192,26468.381,28651.758,,grey
,Fixation,canvas.Screen,3_7_0_0,2022-03-01T10:14:18.056Z,,,,1,A,1900.0379999999968,timeout,,,,30537.899999976158,30535.129,28635.091,28651.899999976158,28651.758,30551.796,,grey
,Stimulus,canvas.Screen,3_7_0_1,2022-03-01T10:14:18.156Z,,,,1,A,100.00200000000041,timeout,,,,30637.599999964237,30635.131,30535.129,30538.099999964237,30551.796,30651.798,,grey
,Reaction,canvas.Screen,3_7_0_2,2022-03-01T10:14:18.387Z,,,,1,A,212.9019999880802,response,,stim_detected,keydown(Space),30869.5,30864.69999998808,30635.131,30637.899999976158,30651.798,30885.136,,grey
,Trial,flow.Sequence,3_7_0,2022-03-01T10:14:18.388Z,,,,1,A,2212.9419999880774,completion,,,,30869.80000001192,30864.69999998808,28635.091,28651.80000001192,28651.758,30885.136,,grey
,Frame,canvas.Frame,3_7,2022-03-01T10:14:18.388Z,,,,1,A,2218.1419999761565,,,,,30870.099999964237,30869.899999976158,28635.091,28651,28651.758,30885.136,,grey
,Fixation,canvas.Screen,3_8_0_0,2022-03-01T10:14:20.239Z,,,,1,A,1850.0370000000003,timeout,,,,32721.099999964237,32718.506,30868.469,30871.30000001192,30885.136,32735.173,,grey
,Stimulus,canvas.Screen,3_8_0_1,2022-03-01T10:14:20.339Z,,,,1,A,100.00200000000405,timeout,,,,32821,32818.508,32718.506,32721.399999976158,32735.173,32835.175,,grey
,Reaction,canvas.Screen,3_8_0_2,2022-03-01T10:14:20.550Z,,,,1,A,192.4249999642343,response,,stim_detected,keydown(Space),33032.09999996424,33027.59999996424,32818.508,32821.19999998808,32835.175,33035.179,,grey
,Trial,flow.Sequence,3_8_0,2022-03-01T10:14:20.550Z,,,,1,A,2142.4639999642386,completion,,,,33032.5,33027.59999996424,30868.469,30871.19999998808,30885.136,33035.179,,grey
,Frame,canvas.Frame,3_8,2022-03-01T10:14:20.551Z,,,,1,A,2147.4639999642386,,,,,33032.69999998808,33032.59999996424,30868.469,30870.30000001192,30885.136,33035.179,,grey
,Fixation,canvas.Screen,3_9_0_0,2022-03-01T10:14:22.306Z,,,,0,V,1766.7020000000048,timeout,,,,34788,34785.214,33018.512,33033.80000001192,33035.179,34801.881,,white
,Stimulus,canvas.Screen,3_9_0_1,2022-03-01T10:14:22.405Z,,,,0,V,100.00200000000041,timeout,,,,34887.5,34885.216,34785.214,34788.19999998808,34801.881,34901.883,,white
,Reaction,canvas.Screen,3_9_0_2,2022-03-01T10:14:22.653Z,,,,0,V,227.61699999999837,response,,stim_detected,keydown(Space),35134.69999998808,35129.5,34885.216,34887.80000001192,34901.883,35151.888,,white
,Trial,flow.Sequence,3_9_0,2022-03-01T10:14:22.653Z,,,,0,V,2094.3210000000036,completion,,,,35135.09999996424,35129.5,33018.512,33033.69999998808,33035.179,35151.888,,white
,Frame,canvas.Frame,3_9,2022-03-01T10:14:22.653Z,,,,0,V,2100.0209999880826,,,,,35135.30000001192,35135.19999998808,33018.512,33032.80000001192,33035.179,35151.888,,white
,Fixation,canvas.Screen,3_10_0_0,2022-03-01T10:14:24.206Z,,,,0,V,1550.0310000000027,timeout,,,,36687.5,36685.252,35135.221,35136.39999997616,35151.888,36701.919,,white
,Stimulus,canvas.Screen,3_10_0_1,2022-03-01T10:14:24.305Z,,,,0,V,100.00200000000041,timeout,,,,36787.30000001192,36785.254,36685.252,36687.69999998808,36701.919,36801.921,,white
,Reaction,canvas.Screen,3_10_0_2,2022-03-01T10:14:24.495Z,,,,0,V,170.37900001191883,response,,stim_detected,keydown(Space),36977.09999996424,36972.30000001192,36785.254,36787.39999997616,36801.921,37001.925,,white
,Trial,flow.Sequence,3_10_0,2022-03-01T10:14:24.495Z,,,,0,V,1820.412000011922,completion,,,,36977.39999997616,36972.30000001192,35135.221,35136.30000001192,35151.888,37001.925,,white
,Frame,canvas.Frame,3_10,2022-03-01T10:14:24.496Z,,,,0,V,1825.612000000001,,,,,36977.59999996424,36977.5,35135.221,35135.39999997616,35151.888,37001.925,,white
,Fixation,canvas.Screen,3_11_0_0,2022-03-01T10:14:26.889Z,,,,0,V,2383.380999999994,timeout,,,,39370.69999998808,39368.639,36968.591,36978.69999998808,37001.925,39385.306,,white
,Stimulus,canvas.Screen,3_11_0_1,2022-03-01T10:14:26.989Z,,,,0,V,100.00200000000041,timeout,,,,39470.89999997616,39468.641,39368.639,39370.89999997616,39385.306,39485.308,,white
,Reaction,canvas.Screen,3_11_0_2,2022-03-01T10:14:27.100Z,,,,0,V,91.8919999880818,response,,stim_detected,keydown(Space),39581.80000001192,39577.19999998808,39468.641,39471,39485.308,39585.31,,white
,Trial,flow.Sequence,3_11_0,2022-03-01T10:14:27.100Z,,,,0,V,2575.274999988076,completion,,,,39582.09999996424,39577.19999998808,36968.591,36978.59999996424,37001.925,39585.31,,white
,Frame,canvas.Frame,3_11,2022-03-01T10:14:27.100Z,,,,0,V,2580.1749999642343,,,,,39582.30000001192,39582.09999996424,36968.591,36977.69999998808,37001.925,39585.31,,white
,Fixation,canvas.Screen,3_12_0_0,2022-03-01T10:14:28.623Z,,,,1,VA,1533.3640000000014,timeout,,,,41104.5,41102.007,39568.643,39583.39999997616,39585.31,41118.674,,white
,Stimulus,canvas.Screen,3_12_0_1,2022-03-01T10:14:28.722Z,,,,1,VA,100.00200000000041,timeout,,,,41203.89999997616,41202.009,41102.007,41104.80000001192,41118.674,41218.676,,white
,Reaction,canvas.Screen,3_12_0_2,2022-03-01T10:14:28.919Z,,,,1,VA,177.42399996423774,response,,stim_detected,keydown(Space),41400.80000001192,41396.09999996424,41202.009,41203.89999997616,41218.676,41402.013,,white
,Trial,flow.Sequence,3_12_0,2022-03-01T10:14:28.919Z,,,,1,VA,1810.7899999642395,completion,,,,41401.09999996424,41396.09999996424,39568.643,39583.30000001192,39585.31,41402.013,,white
,Frame,canvas.Frame,3_12,2022-03-01T10:14:28.919Z,,,,1,VA,1815.8899999880814,,,,,41401.30000001192,41401.19999998808,39568.643,39582.39999997616,39585.31,41402.013,,white
,Fixation,canvas.Screen,3_13_0_0,2022-03-01T10:14:31.255Z,,,,0,V,2350.0469999999987,timeout,,,,43736.5,43735.393,41385.346,41402.39999997616,41402.013,43752.06,,white
,Stimulus,canvas.Screen,3_13_0_1,2022-03-01T10:14:31.356Z,,,,0,V,100.00200000000041,timeout,,,,43837.69999998808,43835.395,43735.393,43736.80000001192,43752.06,43852.062,,white
,Reaction,canvas.Screen,3_13_0_2,2022-03-01T10:14:31.592Z,,,,0,V,217.73800001192285,response,,stim_detected,keydown(Space),44073.89999997616,44069.80000001192,43835.395,43838,43852.062,44085.4,,white
,Trial,flow.Sequence,3_13_0,2022-03-01T10:14:31.592Z,,,,0,V,2667.787000011922,completion,,,,44074.09999996424,44069.80000001192,41385.346,41402.30000001192,41402.013,44085.4,,white
,Frame,canvas.Frame,3_13,2022-03-01T10:14:31.592Z,,,,0,V,2672.086999964238,,,,,44074.09999996424,44074.09999996424,41385.346,41401.39999997616,41402.013,44085.4,,white
,Fixation,canvas.Screen,3_14_0_0,2022-03-01T10:14:33.489Z,,,,1,A,1900.0380000000005,timeout,,,,45970.80000001192,45968.771,44068.733,44074.80000001192,44085.4,45985.438,,grey
,Stimulus,canvas.Screen,3_14_0_1,2022-03-01T10:14:33.588Z,,,,1,A,100.00200000000041,timeout,,,,46069.89999997616,46068.773,45968.771,45970.89999997616,45985.438,46085.44,,grey
,Reaction,canvas.Screen,3_14_0_2,2022-03-01T10:14:33.774Z,,,,1,A,167.25999998807674,response,,stim_detected,keydown(Space),46256.19999998808,46252.69999998808,46068.773,46070,46085.44,46268.777,,grey
,Trial,flow.Sequence,3_14_0,2022-03-01T10:14:33.775Z,,,,1,A,2167.2999999880776,completion,,,,46256.39999997616,46252.69999998808,44068.733,44074.80000001192,44085.4,46268.777,,grey
,Frame,canvas.Frame,3_14,2022-03-01T10:14:33.775Z,,,,1,A,2170.9999999761567,,,,,46256.39999997616,46256.39999997616,44068.733,44074.19999998808,44085.4,46268.777,,grey
,Fixation,canvas.Screen,3_15_0_0,2022-03-01T10:14:36.189Z,,,,1,A,2416.7149999999965,timeout,,,,48670.30000001192,48668.825,46252.11,46257,46268.777,48685.492,,grey
,Stimulus,canvas.Screen,3_15_0_1,2022-03-01T10:14:36.290Z,,,,1,A,100.00200000000041,timeout,,,,48771.19999998808,48768.827,48668.825,48670.5,48685.492,48785.494,,grey
,Reaction,canvas.Screen,3_15_0_2,2022-03-01T10:14:36.563Z,,,,1,A,254.2059999880803,response,,stim_detected,keydown(Space),49044.19999998808,49039.69999998808,48768.827,48771.39999997616,48785.494,49052.166,,grey
,Trial,flow.Sequence,3_15_0,2022-03-01T10:14:36.563Z,,,,1,A,2770.922999988077,completion,,,,49044.5,49039.69999998808,46252.11,46257,46268.777,49052.166,,grey
,Frame,canvas.Frame,3_15,2022-03-01T10:14:36.563Z,,,,1,A,2775.8229999642354,,,,,49044.80000001192,49044.59999996424,46252.11,46256.5,46268.777,49052.166,,grey
,Fixation,canvas.Screen,3_16_0_0,2022-03-01T10:14:38.990Z,,,,0,V,2433.382000000005,timeout,,,,51471.09999996424,51468.881,49035.499,49045.89999997616,49052.166,51485.548,,white
,Stimulus,canvas.Screen,3_16_0_1,2022-03-01T10:14:39.090Z,,,,0,V,100.00200000000041,timeout,,,,51571.5,51568.883,51468.881,51471.30000001192,51485.548,51585.55,,white
,Reaction,canvas.Screen,3_16_0_2,2022-03-01T10:14:39.297Z,,,,0,V,188.0499999642343,response,,stim_detected,keydown(Space),51778.5,51773.59999996424,51568.883,51571.69999998808,51585.55,51785.554,,white
,Trial,flow.Sequence,3_16_0,2022-03-01T10:14:39.297Z,,,,0,V,2721.43399996424,completion,,,,51778.89999997616,51773.59999996424,49035.499,49045.80000001192,49052.166,51785.554,,white
,Frame,canvas.Frame,3_16,2022-03-01T10:14:39.298Z,,,,0,V,2726.7339999761607,,,,,51779.09999996424,51778.89999997616,49035.499,49044.89999997616,49052.166,51785.554,,white
,Fixation,canvas.Screen,3_17_0_0,2022-03-01T10:14:41.573Z,,,,1,A,2283.379000000001,timeout,,,,54054.19999998808,54052.266,51768.887,51780.30000001192,51785.554,54068.933,,grey
,Stimulus,canvas.Screen,3_17_0_1,2022-03-01T10:14:41.673Z,,,,1,A,100.00200000000041,timeout,,,,54154.59999996424,54152.268,54052.266,54054.39999997616,54068.933,54168.935,,grey
,Reaction,canvas.Screen,3_17_0_2,2022-03-01T10:14:42.013Z,,,,1,A,321.36500001192326,response,,stim_detected,keydown(Space),54494.89999997616,54490.30000001192,54152.268,54154.80000001192,54168.935,54502.275,,grey
,Trial,flow.Sequence,3_17_0,2022-03-01T10:14:42.014Z,,,,1,A,2704.7460000119245,completion,,,,54495.30000001192,54490.30000001192,51768.887,51780.19999998808,51785.554,54502.275,,grey
,Frame,canvas.Frame,3_17,2022-03-01T10:14:42.014Z,,,,1,A,2709.7460000119245,,,,,54495.39999997616,54495.30000001192,51768.887,51779.30000001192,51785.554,54502.275,,grey
,Fixation,canvas.Screen,3_18_0_0,2022-03-01T10:14:43.573Z,,,,1,A,1566.6979999999967,timeout,,,,56054.19999998808,56052.306,54485.608,54496.5,54502.275,56068.973,,grey
,Stimulus,canvas.Screen,3_18_0_1,2022-03-01T10:14:43.673Z,,,,1,A,100.00200000000041,timeout,,,,56154.39999997616,56152.308,56052.306,56054.39999997616,56068.973,56168.975,,grey
,Reaction,canvas.Screen,3_18_0_2,2022-03-01T10:14:43.893Z,,,,1,A,201.32500001192238,response,,stim_detected,keydown(Space),56374.59999996424,56370.30000001192,56152.308,56154.59999996424,56168.975,56385.646,,grey
,Trial,flow.Sequence,3_18_0,2022-03-01T10:14:43.893Z,,,,1,A,1868.0250000119195,completion,,,,56374.89999997616,56370.30000001192,54485.608,54496.39999997616,54502.275,56385.646,,grey
,Frame,canvas.Frame,3_18,2022-03-01T10:14:43.894Z,,,,1,A,1872.7249999999985,,,,,56375.19999998808,56375,54485.608,54495.59999996424,54502.275,56385.646,,grey
,Fixation,canvas.Screen,3_19_0_0,2022-03-01T10:14:46.272Z,,,,1,A,2400.0480000000025,timeout,,,,58753.89999997616,58752.36,56368.979,56376.09999996424,56385.646,58785.694,,grey
,Stimulus,canvas.Screen,3_19_0_1,2022-03-01T10:14:46.390Z,,,,1,A,100.00200000000041,timeout,,,,58871.59999996424,58869.029,58752.36,58754.09999996424,58785.694,58885.696,,grey
,Reaction,canvas.Screen,3_19_0_2,2022-03-01T10:14:46.610Z,,,,1,A,201.30399999999645,response,,stim_detected,keydown(Space),59091.69999998808,59087,58869.029,58871.80000001192,58885.696,59102.367,,grey
,Trial,flow.Sequence,3_19_0,2022-03-01T10:14:46.611Z,,,,1,A,2701.3539999999994,completion,,,,59092.09999996424,59087,56368.979,56376.09999996424,56385.646,59102.367,,grey
,Frame,canvas.Frame,3_19,2022-03-01T10:14:46.611Z,,,,1,A,2706.5539999880784,,,,,59092.19999998808,59092.19999998808,56368.979,56375.19999998808,56385.646,59102.367,,grey
,Fixation,canvas.Screen,3_20_0_0,2022-03-01T10:14:48.341Z,,,,1,A,1733.3680000000022,timeout,,,,60821.80000001192,60819.068,59085.7,59093.39999997616,59102.367,60835.735,,grey
,Stimulus,canvas.Screen,3_20_0_1,2022-03-01T10:14:48.440Z,,,,1,A,100.00200000000041,timeout,,,,60921.80000001192,60919.07,60819.068,60822.09999996424,60835.735,60935.737,,grey
,Reaction,canvas.Screen,3_20_0_2,2022-03-01T10:14:48.635Z,,,,1,A,176.16299997615715,response,,stim_detected,keydown(Space),61116.39999997616,61111.89999997616,60919.07,60921.89999997616,60935.737,61119.074,,grey
,Trial,flow.Sequence,3_20_0,2022-03-01T10:14:48.635Z,,,,1,A,2009.5329999761598,completion,,,,61116.69999998808,61111.89999997616,59085.7,59093.39999997616,59102.367,61119.074,,grey
,Frame,canvas.Frame,3_20,2022-03-01T10:14:48.636Z,,,,1,A,2014.4330000119226,,,,,61117,61116.80000001192,59085.7,59092.39999997616,59102.367,61119.074,,grey
,Fixation,canvas.Screen,3_21_0_0,2022-03-01T10:14:50.241Z,,,,1,VA,1616.6990000000005,timeout,,,,62722,62719.106,61102.407,61118.09999996424,61119.074,62735.773,,white
,Stimulus,canvas.Screen,3_21_0_1,2022-03-01T10:14:50.340Z,,,,1,VA,100.00200000000041,timeout,,,,62821.19999998808,62819.108,62719.106,62722.19999998808,62735.773,62835.775,,white
,Reaction,canvas.Screen,3_21_0_2,2022-03-01T10:14:50.536Z,,,,1,VA,176.22499999999854,response,,stim_detected,keydown(Space),63016.80000001192,63012,62819.108,62821.39999997616,62835.775,63019.112,,white
,Trial,flow.Sequence,3_21_0,2022-03-01T10:14:50.536Z,,,,1,VA,1892.9259999999995,completion,,,,63017.09999996424,63012,61102.407,61118,61119.074,63019.112,,white
,Frame,canvas.Frame,3_21,2022-03-01T10:14:50.536Z,,,,1,VA,1898.0259999642367,,,,,63017.30000001192,63017.09999996424,61102.407,61117.09999996424,61119.074,63019.112,,white
,Fixation,canvas.Screen,3_22_0_0,2022-03-01T10:14:52.074Z,,,,0,V,1550.0309999999954,timeout,,,,64555.09999996424,64552.476,63002.445,63018.39999997616,63019.112,64569.143,,white
,Stimulus,canvas.Screen,3_22_0_1,2022-03-01T10:14:52.174Z,,,,0,V,100.00200000000041,timeout,,,,64654.89999997616,64652.478,64552.476,64555.30000001192,64569.143,64669.145,,white
,Reaction,canvas.Screen,3_22_0_2,2022-03-01T10:14:52.422Z,,,,0,V,229.75499997616134,response,,stim_detected,keydown(Space),64903.39999997616,64898.89999997616,64652.478,64655.09999996424,64669.145,64919.15,,white
,Trial,flow.Sequence,3_22_0,2022-03-01T10:14:52.423Z,,,,0,V,1879.7879999761572,completion,,,,64903.69999998808,64898.89999997616,63002.445,63018.30000001192,63019.112,64919.15,,white
,Frame,canvas.Frame,3_22,2022-03-01T10:14:52.423Z,,,,0,V,1884.68800001192,,,,,64903.89999997616,64903.80000001192,63002.445,63017.39999997616,63019.112,64919.15,,white
,Fixation,canvas.Screen,3_23_0_0,2022-03-01T10:14:54.823Z,,,,0,V,2400.0480000000025,timeout,,,,67304.30000001192,67302.531,64902.483,64905.09999996424,64919.15,67319.198,,white
,Stimulus,canvas.Screen,3_23_0_1,2022-03-01T10:14:54.924Z,,,,0,V,100.00199999999313,timeout,,,,67404.80000001192,67402.533,67302.531,67304.5,67319.198,67419.2,,white
,Reaction,canvas.Screen,3_23_0_2,2022-03-01T10:14:55.188Z,,,,0,V,245.49999998808198,response,,stim_detected,keydown(Space),67669.09999996424,67664.69999998808,67402.533,67405,67419.2,67685.872,,white
,Trial,flow.Sequence,3_23_0,2022-03-01T10:14:55.188Z,,,,0,V,2745.5499999880776,completion,,,,67669.39999997616,67664.69999998808,64902.483,64905,64919.15,67685.872,,white
,Frame,canvas.Frame,3_23,2022-03-01T10:14:55.188Z,,,,0,V,2750.3499999999985,,,,,67669.59999996424,67669.5,64902.483,64904,64919.15,67685.872,,white
,Fixation,canvas.Screen,3_24_0_0,2022-03-01T10:14:56.923Z,,,,1,VA,1733.3680000000022,timeout,,,,69404.39999997616,69402.573,67669.205,67670.69999998808,67685.872,69419.24,,white
,Stimulus,canvas.Screen,3_24_0_1,2022-03-01T10:14:57.023Z,,,,1,VA,100.00199999999313,timeout,,,,69504.39999997616,69502.575,69402.573,69404.59999996424,69419.24,69519.242,,white
,Reaction,canvas.Screen,3_24_0_2,2022-03-01T10:14:57.234Z,,,,1,VA,191.4579999880807,response,,stim_detected,keydown(Space),69715.09999996424,69710.69999998808,69502.575,69504.59999996424,69519.242,69719.246,,white
,Trial,flow.Sequence,3_24_0,2022-03-01T10:14:57.234Z,,,,1,VA,2024.827999988076,completion,,,,69715.39999997616,69710.69999998808,67669.205,67670.59999996424,67685.872,69719.246,,white
,Frame,canvas.Frame,3_24,2022-03-01T10:14:57.234Z,,,,1,VA,2029.5279999761551,,,,,69715.5,69715.39999997616,67669.205,67669.69999998808,67685.872,69719.246,,white
,Fixation,canvas.Screen,3_25_0_0,2022-03-01T10:14:59.473Z,,,,0,V,2250.0449999999983,timeout,,,,71954.30000001192,71952.624,69702.579,69716.59999996424,69719.246,71969.291,,white
,Stimulus,canvas.Screen,3_25_0_1,2022-03-01T10:14:59.574Z,,,,0,V,100.00200000000768,timeout,,,,72054.59999996424,72052.626,71952.624,71954.59999996424,71969.291,72069.293,,white
,Reaction,canvas.Screen,3_25_0_2,2022-03-01T10:14:59.794Z,,,,0,V,201.20699999999488,response,,stim_detected,keydown(Space),72275.19999998808,72270.5,72052.626,72054.80000001192,72069.293,72285.964,,white
,Trial,flow.Sequence,3_25_0,2022-03-01T10:14:59.794Z,,,,0,V,2551.254000000001,completion,,,,72275.5,72270.5,69702.579,69716.39999997616,69719.246,72285.964,,white
,Frame,canvas.Frame,3_25,2022-03-01T10:14:59.795Z,,,,0,V,2556.353999964238,,,,,72275.69999998808,72275.59999996424,69702.579,69715.69999998808,69719.246,72285.964,,white
,Fixation,canvas.Screen,3_26_0_0,2022-03-01T10:15:01.757Z,,,,0,V,1966.705999999991,timeout,,,,74237.5,74236.003,72269.297,72276.80000001192,72285.964,74252.67,,white
,Stimulus,canvas.Screen,3_26_0_1,2022-03-01T10:15:01.857Z,,,,0,V,100.00200000000768,timeout,,,,74338.19999998808,74336.005,74236.003,74237.69999998808,74252.67,74352.672,,white
,Reaction,canvas.Screen,3_26_0_2,2022-03-01T10:15:02.064Z,,,,0,V,187.7279999761522,response,,stim_detected,keydown(Space),74545.30000001192,74540.39999997616,74336.005,74338.39999997616,74352.672,74552.676,,white
,Trial,flow.Sequence,3_26_0,2022-03-01T10:15:02.065Z,,,,0,V,2254.435999976151,completion,,,,74545.5,74540.39999997616,72269.297,72276.69999998808,72285.964,74552.676,,white
,Frame,canvas.Frame,3_26,2022-03-01T10:15:02.065Z,,,,0,V,2259.63599996423,,,,,74545.69999998808,74545.59999996424,72269.297,72275.89999997616,72285.964,74552.676,,white
,Fixation,canvas.Screen,3_27_0_0,2022-03-01T10:15:03.907Z,,,,0,V,1850.0369999999966,timeout,,,,76387.80000001192,76386.046,74536.009,74546.89999997616,74552.676,76402.713,,white
,Stimulus,canvas.Screen,3_27_0_1,2022-03-01T10:15:04.007Z,,,,0,V,100.00199999999313,timeout,,,,76487.69999998808,76486.048,76386.046,76388,76402.713,76502.715,,white
,Reaction,canvas.Screen,3_27_0_2,2022-03-01T10:15:04.218Z,,,,0,V,191.48499998808256,response,,stim_detected,keydown(Space),76698.80000001192,76694.19999998808,76486.048,76487.89999997616,76502.715,76702.719,,white
,Trial,flow.Sequence,3_27_0,2022-03-01T10:15:04.218Z,,,,0,V,2141.5239999880723,completion,,,,76699.09999996424,76694.19999998808,74536.009,74546.69999998808,74552.676,76702.719,,white
,Frame,canvas.Frame,3_27,2022-03-01T10:15:04.218Z,,,,0,V,2146.5239999880723,,,,,76699.39999997616,76699.19999998808,74536.009,74545.89999997616,74552.676,76702.719,,white
,Fixation,canvas.Screen,3_28_0_0,2022-03-01T10:15:06.257Z,,,,1,A,2050.0409999999974,timeout,,,,78737.59999996424,78736.093,76686.052,76700.5,76702.719,78752.76,,grey
,Stimulus,canvas.Screen,3_28_0_1,2022-03-01T10:15:06.357Z,,,,1,A,100.00200000000768,timeout,,,,78837.59999996424,78836.095,78736.093,78737.80000001192,78752.76,78852.762,,grey
,Reaction,canvas.Screen,3_28_0_2,2022-03-01T10:15:06.767Z,,,,1,A,390.4379999880766,response,,stim_detected,keydown(Space),79247.5,79243.19999998808,78836.095,78837.80000001192,78852.762,79252.77,,grey
,Trial,flow.Sequence,3_28_0,2022-03-01T10:15:06.767Z,,,,1,A,2540.4809999880817,completion,,,,79247.80000001192,79243.19999998808,76686.052,76700.30000001192,76702.719,79252.77,,grey
,Frame,canvas.Frame,3_28,2022-03-01T10:15:06.767Z,,,,1,A,2545.180999976161,,,,,79248,79247.89999997616,76686.052,76699.39999997616,76702.719,79252.77,,grey
,Fixation,canvas.Screen,3_29_0_0,2022-03-01T10:15:08.608Z,,,,0,V,1850.0369999999966,timeout,,,,81089,81086.14,79236.103,79249.19999998808,79252.77,81102.807,,white
,Stimulus,canvas.Screen,3_29_0_1,2022-03-01T10:15:08.708Z,,,,0,V,100.00199999999313,timeout,,,,81188.89999997616,81186.142,81086.14,81089.39999997616,81102.807,81202.809,,white
,Reaction,canvas.Screen,3_29_0_2,2022-03-01T10:15:08.940Z,,,,0,V,213.0909999761643,response,,stim_detected,keydown(Space),81420.39999997616,81415.89999997616,81186.142,81189.39999997616,81202.809,81436.147,,white
,Trial,flow.Sequence,3_29_0,2022-03-01T10:15:08.940Z,,,,0,V,2163.129999976154,completion,,,,81420.69999998808,81415.89999997616,79236.103,79249.09999996424,79252.77,81436.147,,white
,Frame,canvas.Frame,3_29,2022-03-01T10:15:08.940Z,,,,0,V,2167.929999988075,,,,,81420.89999997616,81420.69999998808,79236.103,79248.09999996424,79252.77,81436.147,,white
,Fixation,canvas.Screen,3_30_0_0,2022-03-01T10:15:10.540Z,,,,1,A,1600.0320000000065,timeout,,,,83021.09999996424,83019.512,81419.48,81422,81436.147,83036.179,,grey
,Stimulus,canvas.Screen,3_30_0_1,2022-03-01T10:15:10.641Z,,,,1,A,100.00199999999313,timeout,,,,83121.59999996424,83119.514,83019.512,83021.30000001192,83036.179,83136.181,,grey
,Reaction,canvas.Screen,3_30_0_2,2022-03-01T10:15:10.896Z,,,,1,A,235.51899998808221,response,,stim_detected,keydown(Space),83376.69999998808,83371.69999998808,83119.514,83121.80000001192,83136.181,83386.186,,grey
,Trial,flow.Sequence,3_30_0,2022-03-01T10:15:10.896Z,,,,1,A,1935.5529999880819,completion,,,,83376.89999997616,83371.69999998808,81419.48,81422,81436.147,83386.186,,grey
,Frame,canvas.Frame,3_30,2022-03-01T10:15:10.896Z,,,,1,A,1940.752999976161,,,,,83377,83376.89999997616,81419.48,81421.09999996424,81436.147,83386.186,,grey
,Fixation,canvas.Screen,3_31_0_0,2022-03-01T10:15:12.491Z,,,,1,VA,1600.031999999992,timeout,,,,84972,84969.551,83369.519,83377.69999998808,83386.186,84986.218,,white
,Stimulus,canvas.Screen,3_31_0_1,2022-03-01T10:15:12.591Z,,,,1,VA,100.00200000000768,timeout,,,,85071.59999996424,85069.553,84969.551,84972.09999996424,84986.218,85086.22,,white
,Reaction,canvas.Screen,3_31_0_2,2022-03-01T10:15:12.790Z,,,,1,VA,179.4799999880779,response,,stim_detected,keydown(Space),85270.39999997616,85265.69999998808,85069.553,85071.69999998808,85086.22,85286.224,,white
,Trial,flow.Sequence,3_31_0,2022-03-01T10:15:12.790Z,,,,1,VA,1879.5139999880776,completion,,,,85270.69999998808,85265.69999998808,83369.519,83377.69999998808,83386.186,85286.224,,white
,Frame,canvas.Frame,3_31,2022-03-01T10:15:12.790Z,,,,1,VA,1884.6140000119194,,,,,85271,85270.80000001192,83369.519,83377.09999996424,83386.186,85286.224,,white
,Fixation,canvas.Screen,3_32_0_0,2022-03-01T10:15:15.008Z,,,,1,A,2216.7109999999957,timeout,,,,87488.30000001192,87486.268,85269.557,85271.89999997616,85286.224,87502.935,,grey
,Stimulus,canvas.Screen,3_32_0_1,2022-03-01T10:15:15.109Z,,,,1,A,100.00200000000768,timeout,,,,87589.19999998808,87586.27,87486.268,87488.5,87502.935,87602.937,,grey
,Reaction,canvas.Screen,3_32_0_2,2022-03-01T10:15:15.376Z,,,,1,A,248.76299998807372,response,,stim_detected,keydown(Space),87856.59999996424,87851.69999998808,87586.27,87589.39999997616,87602.937,87869.609,,grey
,Trial,flow.Sequence,3_32_0,2022-03-01T10:15:15.376Z,,,,1,A,2565.475999988077,completion,,,,87857,87851.69999998808,85269.557,85271.80000001192,85286.224,87869.609,,grey
,Frame,canvas.Frame,3_32,2022-03-01T10:15:15.377Z,,,,1,A,2570.8759999642352,,,,,87857.19999998808,87857.09999996424,85269.557,85271.09999996424,85286.224,87869.609,,grey
,Fixation,canvas.Screen,3_33_0_0,2022-03-01T10:15:17.358Z,,,,1,VA,1983.3730000000069,timeout,,,,89838.30000001192,89836.315,87852.942,87858.30000001192,87869.609,89852.982,,white
,Stimulus,canvas.Screen,3_33_0_1,2022-03-01T10:15:17.458Z,,,,1,VA,100.00199999999313,timeout,,,,89938.80000001192,89936.317,89836.315,89838.59999996424,89852.982,89952.984,,white
,Reaction,canvas.Screen,3_33_0_2,2022-03-01T10:15:17.695Z,,,,1,VA,217.51600000000326,response,,stim_detected,keydown(Space),90175.09999996424,90170.5,89936.317,89939,89952.984,90186.322,,white
,Trial,flow.Sequence,3_33_0,2022-03-01T10:15:17.695Z,,,,1,VA,2300.8910000000033,completion,,,,90175.39999997616,90170.5,87852.942,87858.30000001192,87869.609,90186.322,,white
,Frame,canvas.Frame,3_33,2022-03-01T10:15:17.695Z,,,,1,VA,2305.8910000000033,,,,,90175.69999998808,90175.5,87852.942,87857.39999997616,87869.609,90186.322,,white
,Fixation,canvas.Screen,3_34_0_0,2022-03-01T10:15:19.558Z,,,,1,A,1866.703999999998,timeout,,,,92038,92036.359,90169.655,90176.69999998808,90186.322,92053.026,,grey
,Stimulus,canvas.Screen,3_34_0_1,2022-03-01T10:15:19.658Z,,,,1,A,100.00200000000768,timeout,,,,92138,92136.361,92036.359,92038.30000001192,92053.026,92153.028,,grey
,Reaction,canvas.Screen,3_34_0_2,2022-03-01T10:15:19.959Z,,,,1,A,282.2720000119152,response,,stim_detected,keydown(Space),92439.69999998808,92435.30000001192,92136.361,92138.30000001192,92153.028,92453.034,,grey
,Trial,flow.Sequence,3_34_0,2022-03-01T10:15:19.960Z,,,,1,A,2248.978000011921,completion,,,,92440.09999996424,92435.30000001192,90169.655,90176.69999998808,90186.322,92453.034,,grey
,Frame,canvas.Frame,3_34,2022-03-01T10:15:19.960Z,,,,1,A,2253.877999988079,,,,,92440.30000001192,92440.19999998808,90169.655,90175.69999998808,90186.322,92453.034,,grey
,Fixation,canvas.Screen,3_35_0_0,2022-03-01T10:15:21.808Z,,,,1,A,1850.0369999999966,timeout,,,,94288.30000001192,94286.404,92436.367,92441.39999997616,92453.034,94303.071,,grey
,Stimulus,canvas.Screen,3_35_0_1,2022-03-01T10:15:21.909Z,,,,1,A,100.00200000000768,timeout,,,,94388.89999997616,94386.406,94286.404,94288.5,94303.071,94403.073,,grey
,Reaction,canvas.Screen,3_35_0_2,2022-03-01T10:15:22.144Z,,,,1,A,217.22700001191697,response,,stim_detected,keydown(Space),94624.69999998808,94620.30000001192,94386.406,94389.19999998808,94403.073,94636.411,,grey
,Trial,flow.Sequence,3_35_0,2022-03-01T10:15:22.145Z,,,,1,A,2167.2660000119213,completion,,,,94625,94620.30000001192,92436.367,92441.19999998808,92453.034,94636.411,,grey
,Frame,canvas.Frame,3_35,2022-03-01T10:15:22.145Z,,,,1,A,2172.0659999642376,,,,,94625.19999998808,94625.09999996424,92436.367,92440.39999997616,92453.034,94636.411,,grey
,Fixation,canvas.Screen,3_36_0_0,2022-03-01T10:15:24.125Z,,,,1,VA,1983.3730000000069,timeout,,,,96605.39999997616,96603.117,94619.744,94626.19999998808,94636.411,96619.784,,white
,Stimulus,canvas.Screen,3_36_0_1,2022-03-01T10:15:24.225Z,,,,1,VA,100.00199999999313,timeout,,,,96705.19999998808,96703.119,96603.117,96605.59999996424,96619.784,96719.786,,white
,Reaction,canvas.Screen,3_36_0_2,2022-03-01T10:15:24.260Z,,,,1,VA,16.41399998808629,response,,stim_detected,keydown(Space),96740.80000001192,96736.19999998808,96703.119,96705.39999997616,96719.786,96753.12,,white
,Trial,flow.Sequence,3_36_0,2022-03-01T10:15:24.261Z,,,,1,VA,2099.7889999880863,completion,,,,96741.09999996424,96736.19999998808,94619.744,94626.09999996424,94636.411,96753.12,,white
,Frame,canvas.Frame,3_36,2022-03-01T10:15:24.261Z,,,,1,VA,2104.7889999880863,,,,,96741.30000001192,96741.19999998808,94619.744,94625.30000001192,94636.411,96753.12,,white
,Fixation,canvas.Screen,3_37_0_0,2022-03-01T10:15:26.592Z,,,,1,A,2333.3800000000047,timeout,,,,99072.39999997616,99069.833,96736.453,96742.30000001192,96753.12,99086.5,,grey
,Stimulus,canvas.Screen,3_37_0_1,2022-03-01T10:15:26.692Z,,,,1,A,100.00199999999313,timeout,,,,99172.39999997616,99169.835,99069.833,99072.69999998808,99086.5,99186.502,,grey
,Reaction,canvas.Screen,3_37_0_2,2022-03-01T10:15:28.191Z,,,,1,A,1500.0300000000134,timeout,,,,100671.30000001192,100669.865,99169.835,99172.59999996424,99186.502,100686.532,,grey
,Trial,flow.Sequence,3_37_0,2022-03-01T10:15:28.191Z,,,,1,A,3916.74500000001,completion,,,,100671.59999996424,100669.865,96736.453,96742.19999998808,96753.12,100686.532,,grey
,Frame,canvas.Frame,3_37,2022-03-01T10:15:28.192Z,,,,1,A,3918.6800000119256,,,,,100671.89999997616,100671.80000001192,96736.453,96741.30000001192,96753.12,100703.199,,grey
,Fixation,canvas.Screen,3_38_0_0,2022-03-01T10:15:30.092Z,,,,1,VA,1883.3710000000137,timeout,,,,102572.5,102569.903,100686.532,100672.89999997616,100703.199,102586.57,,white
,Stimulus,canvas.Screen,3_38_0_1,2022-03-01T10:15:30.192Z,,,,1,VA,100.00199999999313,timeout,,,,102672.19999998808,102669.905,102569.903,102572.69999998808,102586.57,102686.572,,white
,Reaction,canvas.Screen,3_38_0_2,2022-03-01T10:15:30.423Z,,,,1,VA,212.5279999642371,response,,stim_detected,keydown(Space),102903.59999996424,102899.09999996424,102669.905,102672.30000001192,102686.572,102919.91,,white
,Trial,flow.Sequence,3_38_0,2022-03-01T10:15:30.424Z,,,,1,VA,2195.900999964244,completion,,,,102903.89999997616,102899.09999996424,100686.532,100672.80000001192,100703.199,102919.91,,white
,Frame,canvas.Frame,3_38,2022-03-01T10:15:30.424Z,,,,1,VA,2200.8010000000068,,,,,102904.19999998808,102904,100686.532,100672,100703.199,102919.91,,white
,Fixation,canvas.Screen,3_39_0_0,2022-03-01T10:15:32.326Z,,,,0,V,1900.0380000000005,timeout,,,,104805.89999997616,104803.281,102903.243,102905.19999998808,102919.91,104819.948,,white
,Stimulus,canvas.Screen,3_39_0_1,2022-03-01T10:15:32.426Z,,,,0,V,100.00199999999313,timeout,,,,104906.09999996424,104903.283,104803.281,104806.09999996424,104819.948,104919.95,,white
,Reaction,canvas.Screen,3_39_0_2,2022-03-01T10:15:32.689Z,,,,0,V,245.14999996424012,response,,stim_detected,keydown(Space),105169.39999997616,105165.09999996424,104903.283,104906.30000001192,104919.95,105186.622,,white
,Trial,flow.Sequence,3_39_0,2022-03-01T10:15:32.690Z,,,,0,V,2245.1899999642337,completion,,,,105169.69999998808,105165.09999996424,102903.243,102905.19999998808,102919.91,105186.622,,white
,Frame,canvas.Frame,3_39,2022-03-01T10:15:32.690Z,,,,0,V,2249.8900000119174,,,,,105169.89999997616,105169.80000001192,102903.243,102904.30000001192,102919.91,105186.622,,white
,Fixation,canvas.Screen,3_40_0_0,2022-03-01T10:15:34.808Z,,,,1,A,2116.7090000000026,timeout,,,,107287.80000001192,107286.664,105169.955,105171,105186.622,107303.331,,grey
,Stimulus,canvas.Screen,3_40_0_1,2022-03-01T10:15:34.908Z,,,,1,A,100.00199999999313,timeout,,,,107387.69999998808,107386.666,107286.664,107288,107303.331,107403.333,,grey
,Reaction,canvas.Screen,3_40_0_2,2022-03-01T10:15:35.185Z,,,,1,A,256.6670000000013,response,,stim_detected,keydown(Space),107665,107660,107386.666,107388,107403.333,107670.005,,grey
,Trial,flow.Sequence,3_40_0,2022-03-01T10:15:35.185Z,,,,1,A,2473.377999999997,completion,,,,107665.30000001192,107660,105169.955,105170.89999997616,105186.622,107670.005,,grey
,Frame,canvas.Frame,3_40,2022-03-01T10:15:35.185Z,,,,1,A,2478.777999976155,,,,,107665.5,107665.39999997616,105169.955,105170,105186.622,107670.005,,grey
,Fixation,canvas.Screen,3_41_0_0,2022-03-01T10:15:36.858Z,,,,1,A,1683.3669999999984,timeout,,,,109338.30000001192,109336.705,107653.338,107666.5,107670.005,109353.372,,grey
,Stimulus,canvas.Screen,3_41_0_1,2022-03-01T10:15:36.959Z,,,,1,A,100.00199999999313,timeout,,,,109438.89999997616,109436.707,109336.705,109338.5,109353.372,109453.374,,grey
,Reaction,canvas.Screen,3_41_0_2,2022-03-01T10:15:37.232Z,,,,1,A,254.42600001192477,response,,stim_detected,keydown(Space),109712.5,109707.80000001192,109436.707,109439.09999996424,109453.374,109720.046,,grey
,Trial,flow.Sequence,3_41_0,2022-03-01T10:15:37.233Z,,,,1,A,2037.7950000119163,completion,,,,109712.80000001192,109707.80000001192,107653.338,107666.39999997616,107670.005,109720.046,,grey
,Frame,canvas.Frame,3_41,2022-03-01T10:15:37.233Z,,,,1,A,2042.8949999761535,,,,,109713,109712.89999997616,107653.338,107665.59999996424,107670.005,109720.046,,grey
,Fixation,canvas.Screen,3_42_0_0,2022-03-01T10:15:39.225Z,,,,0,V,2000.0399999999936,timeout,,,,111705.39999997616,111703.419,109703.379,109714.5,109720.046,111720.086,,white
,Stimulus,canvas.Screen,3_42_0_1,2022-03-01T10:15:39.326Z,,,,0,V,100.00200000000768,timeout,,,,111806.30000001192,111803.421,111703.419,111705.59999996424,111720.086,111820.088,,white
,Reaction,canvas.Screen,3_42_0_2,2022-03-01T10:15:39.549Z,,,,0,V,204.51199996423384,response,,stim_detected,keydown(Space),112029,112024.59999996424,111803.421,111806.5,111820.088,112036.759,,white
,Trial,flow.Sequence,3_42_0,2022-03-01T10:15:39.549Z,,,,0,V,2304.553999964235,completion,,,,112029.30000001192,112024.59999996424,109703.379,109714.39999997616,109720.046,112036.759,,white
,Frame,canvas.Frame,3_42,2022-03-01T10:15:39.550Z,,,,0,V,2309.254000011919,,,,,112029.39999997616,112029.30000001192,109703.379,109713.19999998808,109720.046,112036.759,,white
,Fixation,canvas.Screen,3_43_0_0,2022-03-01T10:15:41.993Z,,,,1,A,2450.048999999999,timeout,,,,114472.89999997616,114470.141,112020.092,112030.69999998808,112036.759,114486.808,,grey
,Stimulus,canvas.Screen,3_43_0_1,2022-03-01T10:15:42.093Z,,,,1,A,100.00199999999313,timeout,,,,114572.89999997616,114570.143,114470.141,114473.09999996424,114486.808,114586.81,,grey
,Reaction,canvas.Screen,3_43_0_2,2022-03-01T10:15:42.396Z,,,,1,A,284.78999996423954,response,,stim_detected,keydown(Space),114876.19999998808,114871.59999996424,114570.143,114573,114586.81,114886.816,,grey
,Trial,flow.Sequence,3_43_0,2022-03-01T10:15:42.397Z,,,,1,A,2834.8409999642317,completion,,,,114876.59999996424,114871.59999996424,112020.092,112030.59999996424,112036.759,114886.816,,grey
,Frame,canvas.Frame,3_43,2022-03-01T10:15:42.397Z,,,,1,A,2839.9409999880736,,,,,114876.80000001192,114876.69999998808,112020.092,112029.69999998808,112036.759,114886.816,,grey
,Fixation,canvas.Screen,3_44_0_0,2022-03-01T10:15:43.909Z,,,,0,V,1516.6970000000001,timeout,,,,116389.19999998808,116386.846,114870.149,114877.89999997616,114886.816,116403.513,,white
,Stimulus,canvas.Screen,3_44_0_1,2022-03-01T10:15:44.009Z,,,,0,V,100.00199999999313,timeout,,,,116488.69999998808,116486.848,116386.846,116389.39999997616,116403.513,116503.515,,white
,Reaction,canvas.Screen,3_44_0_2,2022-03-01T10:15:44.261Z,,,,0,V,232.98500000000058,response,,stim_detected,keydown(Space),116741.19999998808,116736.5,116486.848,116488.89999997616,116503.515,116753.52,,white
,Trial,flow.Sequence,3_44_0,2022-03-01T10:15:44.262Z,,,,0,V,1849.6839999999938,completion,,,,116741.59999996424,116736.5,114870.149,114877.69999998808,114886.816,116753.52,,white
,Frame,canvas.Frame,3_44,2022-03-01T10:15:44.262Z,,,,0,V,1854.883999988073,,,,,116741.80000001192,116741.69999998808,114870.149,114877,114886.816,116753.52,,white
,Fixation,canvas.Screen,3_45_0_0,2022-03-01T10:15:45.826Z,,,,1,A,1566.6979999999894,timeout,,,,118305.59999996424,118303.551,116736.853,116742.89999997616,116753.52,118320.218,,grey
,Stimulus,canvas.Screen,3_45_0_1,2022-03-01T10:15:45.926Z,,,,1,A,100.00200000000768,timeout,,,,118405.5,118403.553,118303.551,118305.80000001192,118320.218,118420.22,,grey
,Reaction,canvas.Screen,3_45_0_2,2022-03-01T10:15:46.148Z,,,,1,A,202.9799999880779,response,,stim_detected,keydown(Space),118627.89999997616,118623.19999998808,118403.553,118405.69999998808,118420.22,118636.891,,grey
,Trial,flow.Sequence,3_45_0,2022-03-01T10:15:46.149Z,,,,1,A,1869.679999988075,completion,,,,118628.30000001192,118623.19999998808,116736.853,116742.80000001192,116753.52,118636.891,,grey
,Frame,canvas.Frame,3_45,2022-03-01T10:15:46.149Z,,,,1,A,1874.879999976154,,,,,118628.59999996424,118628.39999997616,116736.853,116741.89999997616,116753.52,118636.891,,grey
,Fixation,canvas.Screen,3_46_0_0,2022-03-01T10:15:48.209Z,,,,1,A,2066.7079999999987,timeout,,,,120689.09999996424,120686.932,118620.224,118629.59999996424,118636.891,120703.599,,grey
,Stimulus,canvas.Screen,3_46_0_1,2022-03-01T10:15:48.310Z,,,,1,A,100.00199999999313,timeout,,,,120790.09999996424,120786.934,120686.932,120689.39999997616,120703.599,120803.601,,grey
,Reaction,canvas.Screen,3_46_0_2,2022-03-01T10:15:48.532Z,,,,1,A,203.69900001192582,response,,stim_detected,keydown(Space),121011.80000001192,121007.30000001192,120786.934,120790.30000001192,120803.601,121020.272,,grey
,Trial,flow.Sequence,3_46_0,2022-03-01T10:15:48.532Z,,,,1,A,2370.4090000119177,completion,,,,121012.09999996424,121007.30000001192,118620.224,118629.5,118636.891,121020.272,,grey
,Frame,canvas.Frame,3_46,2022-03-01T10:15:48.533Z,,,,1,A,2375.308999988076,,,,,121012.19999998808,121012.19999998808,118620.224,118628.69999998808,118636.891,121020.272,,grey
,Fixation,canvas.Screen,3_47_0_0,2022-03-01T10:15:50.859Z,,,,1,A,2333.3800000000047,timeout,,,,123338.69999998808,123336.985,121003.605,121013.30000001192,121020.272,123353.652,,grey
,Stimulus,canvas.Screen,3_47_0_1,2022-03-01T10:15:50.959Z,,,,1,A,100.00199999999313,timeout,,,,123438.69999998808,123436.987,123336.985,123338.89999997616,123353.652,123453.654,,grey
,Reaction,canvas.Screen,3_47_0_2,2022-03-01T10:15:51.188Z,,,,1,A,209.44599996424222,response,,stim_detected,keydown(Space),123667.59999996424,123663.09999996424,123436.987,123438.89999997616,123453.654,123670.325,,grey
,Trial,flow.Sequence,3_47_0,2022-03-01T10:15:51.188Z,,,,1,A,2642.82799996424,completion,,,,123667.89999997616,123663.09999996424,121003.605,121013.19999998808,121020.272,123670.325,,grey
,Frame,canvas.Frame,3_47,2022-03-01T10:15:51.188Z,,,,1,A,2647.627999976161,,,,,123668.09999996424,123667.89999997616,121003.605,121012.30000001192,121020.272,123670.325,,grey
,Fixation,canvas.Screen,3_48_0_0,2022-03-01T10:15:52.710Z,,,,1,A,1550.0310000000027,timeout,,,,125189.30000001192,125187.022,123653.658,123669.19999998808,123670.325,125220.356,,grey
,Stimulus,canvas.Screen,3_48_0_1,2022-03-01T10:15:52.826Z,,,,1,A,100.00199999999313,timeout,,,,125306,125303.691,125187.022,125190.39999997616,125220.356,125320.358,,grey
,Reaction,canvas.Screen,3_48_0_2,2022-03-01T10:15:53.139Z,,,,1,A,293.54199997616524,response,,stim_detected,keydown(Space),125618.30000001192,125613.89999997616,125303.691,125306.30000001192,125320.358,125620.364,,grey
,Trial,flow.Sequence,3_48_0,2022-03-01T10:15:53.139Z,,,,1,A,1943.574999976161,completion,,,,125618.69999998808,125613.89999997616,123653.658,123669.19999998808,123670.325,125620.364,,grey
,Frame,canvas.Frame,3_48,2022-03-01T10:15:53.139Z,,,,1,A,1948.374999988082,,,,,125618.89999997616,125618.69999998808,123653.658,123668.19999998808,123670.325,125620.364,,grey
,Fixation,canvas.Screen,3_49_0_0,2022-03-01T10:15:54.727Z,,,,1,A,1600.031999999992,timeout,,,,127206,127203.729,125603.697,125620,125620.364,127220.396,,grey
,Stimulus,canvas.Screen,3_49_0_1,2022-03-01T10:15:54.827Z,,,,1,A,100.00200000000768,timeout,,,,127306,127303.731,127203.729,127206.30000001192,127220.396,127320.398,,grey
,Reaction,canvas.Screen,3_49_0_2,2022-03-01T10:15:55.125Z,,,,1,A,279.4020000119199,response,,stim_detected,keydown(Space),127604.19999998808,127599.80000001192,127303.731,127306.19999998808,127320.398,127620.404,,grey
,Trial,flow.Sequence,3_49_0,2022-03-01T10:15:55.125Z,,,,1,A,1979.4360000119195,completion,,,,127604.69999998808,127599.80000001192,125603.697,125619.89999997616,125620.364,127620.404,,grey
,Frame,canvas.Frame,3_49,2022-03-01T10:15:55.125Z,,,,1,A,1984.4360000119195,,,,,127604.89999997616,127604.80000001192,125603.697,125619,125620.364,127620.404,,grey
,Fixation,canvas.Screen,3_50_0_0,2022-03-01T10:15:57.260Z,,,,1,VA,2133.376000000004,timeout,,,,129739.5,129737.113,127603.737,127606,127620.404,129753.78,,white
,Stimulus,canvas.Screen,3_50_0_1,2022-03-01T10:15:57.359Z,,,,1,VA,100.00200000000768,timeout,,,,129838.69999998808,129837.115,129737.113,129739.69999998808,129753.78,129853.782,,white
,Reaction,canvas.Screen,3_50_0_2,2022-03-01T10:15:57.579Z,,,,1,VA,199.0180000119144,response,,stim_detected,keydown(Space),130058,130052.80000001192,129837.115,129838.89999997616,129853.782,130070.453,,white
,Trial,flow.Sequence,3_50_0,2022-03-01T10:15:57.579Z,,,,1,VA,2432.396000011926,completion,,,,130058.30000001192,130052.80000001192,127603.737,127605.89999997616,127620.404,130070.453,,white
,Frame,canvas.Frame,3_50,2022-03-01T10:15:57.579Z,,,,1,VA,2437.896000011926,,,,,130058.5,130058.30000001192,127603.737,127605,127620.404,130070.453,,white
,Fixation,canvas.Screen,3_51_0_0,2022-03-01T10:15:59.444Z,,,,0,V,1866.7040000000125,timeout,,,,131923.09999996424,131920.49,130053.786,130059.5,130070.453,131937.157,,white
,Stimulus,canvas.Screen,3_51_0_1,2022-03-01T10:15:59.544Z,,,,0,V,100.00200000000768,timeout,,,,132023,132020.492,131920.49,131923.39999997616,131937.157,132037.159,,white
,Reaction,canvas.Screen,3_51_0_2,2022-03-01T10:15:59.777Z,,,,0,V,214.54099998806487,response,,stim_detected,keydown(Space),132256.19999998808,132251.69999998808,132020.492,132023.19999998808,132037.159,132270.497,,white
,Trial,flow.Sequence,3_51_0,2022-03-01T10:15:59.777Z,,,,0,V,2181.246999988085,completion,,,,132256.59999996424,132251.69999998808,130053.786,130059.5,130070.453,132270.497,,white
,Frame,canvas.Frame,3_51,2022-03-01T10:15:59.777Z,,,,0,V,2186.246999988085,,,,,132256.69999998808,132256.69999998808,130053.786,130058.59999996424,130070.453,132270.497,,white
,Fixation,canvas.Screen,3_52_0_0,2022-03-01T10:16:01.894Z,,,,1,VA,2116.7090000000026,timeout,,,,134372.89999997616,134370.539,132253.83,132257.80000001192,132270.497,134387.206,,white
,Stimulus,canvas.Screen,3_52_0_1,2022-03-01T10:16:01.993Z,,,,1,VA,100.00200000000768,timeout,,,,134472.59999996424,134470.541,134370.539,134373.39999997616,134387.206,134487.208,,white
,Reaction,canvas.Screen,3_52_0_2,2022-03-01T10:16:02.190Z,,,,1,VA,177.19199997614487,response,,stim_detected,keydown(Space),134668.80000001192,134664.39999997616,134470.541,134472.59999996424,134487.208,134670.545,,white
,Trial,flow.Sequence,3_52_0,2022-03-01T10:16:02.190Z,,,,1,VA,2393.902999976155,completion,,,,134669.19999998808,134664.39999997616,132253.83,132257.69999998808,132270.497,134670.545,,white
,Frame,canvas.Frame,3_52,2022-03-01T10:16:02.190Z,,,,1,VA,2398.702999988076,,,,,134669.30000001192,134669.19999998808,132253.83,132256.89999997616,132270.497,134670.545,,white
,Fixation,canvas.Screen,3_53_0_0,2022-03-01T10:16:04.142Z,,,,1,VA,1966.7059999999765,timeout,,,,136621.59999996424,136620.584,134653.878,134670.39999997616,134670.545,136637.251,,white
,Stimulus,canvas.Screen,3_53_0_1,2022-03-01T10:16:04.244Z,,,,1,VA,100.00200000000768,timeout,,,,136723.19999998808,136720.586,136620.584,136621.80000001192,136637.251,136737.253,,white
,Reaction,canvas.Screen,3_53_0_2,2022-03-01T10:16:04.437Z,,,,1,VA,174.14699997616117,response,,stim_detected,keydown(Space),136916,136911.39999997616,136720.586,136723.39999997616,136737.253,136920.59,,white
,Trial,flow.Sequence,3_53_0,2022-03-01T10:16:04.437Z,,,,1,VA,2240.8549999761453,completion,,,,136916.39999997616,136911.39999997616,134653.878,134670.30000001192,134670.545,136920.59,,white
,Frame,canvas.Frame,3_53,2022-03-01T10:16:04.437Z,,,,1,VA,2245.8549999761453,,,,,136916.5,136916.39999997616,134653.878,134669.5,134670.545,136920.59,,white
,Fixation,canvas.Screen,3_54_0_0,2022-03-01T10:16:06.810Z,,,,1,A,2383.380999999994,timeout,,,,139289.59999996424,139287.304,136903.923,136917.5,136920.59,139303.971,,grey
,Stimulus,canvas.Screen,3_54_0_1,2022-03-01T10:16:06.910Z,,,,1,A,100.00200000000768,timeout,,,,139389.5,139387.306,139287.304,139290,139303.971,139403.973,,grey
,Reaction,canvas.Screen,3_54_0_2,2022-03-01T10:16:07.147Z,,,,1,A,217.22699998808093,response,,stim_detected,keydown(Space),139625.80000001192,139621.19999998808,139387.306,139389.59999996424,139403.973,139637.311,,grey
,Trial,flow.Sequence,3_54_0,2022-03-01T10:16:07.147Z,,,,1,A,2700.6099999880826,completion,,,,139626.09999996424,139621.19999998808,136903.923,136917.5,136920.59,139637.311,,grey
,Frame,canvas.Frame,3_54,2022-03-01T10:16:07.147Z,,,,1,A,2705.6099999880826,,,,,139626.30000001192,139626.19999998808,136903.923,136916.69999998808,136920.59,139637.311,,grey
,Fixation,canvas.Screen,3_55_0_0,2022-03-01T10:16:09.560Z,,,,0,V,2416.7150000000256,timeout,,,,142039.5,142037.359,139620.644,139627.5,139637.311,142054.026,,white
,Stimulus,canvas.Screen,3_55_0_1,2022-03-01T10:16:09.660Z,,,,0,V,100.00199999997858,timeout,,,,142139.5,142137.361,142037.359,142039.69999998808,142054.026,142154.028,,white
,Reaction,canvas.Screen,3_55_0_2,2022-03-01T10:16:09.867Z,,,,0,V,187.07199996424606,response,,stim_detected,keydown(Space),142345.80000001192,142341.09999996424,142137.361,142139.69999998808,142154.028,142354.032,,white
,Trial,flow.Sequence,3_55_0,2022-03-01T10:16:09.867Z,,,,0,V,2703.7889999642503,completion,,,,142346.09999996424,142341.09999996424,139620.644,139627.39999997616,139637.311,142354.032,,white
,Frame,canvas.Frame,3_55,2022-03-01T10:16:09.867Z,,,,0,V,2708.888999988092,,,,,142346.30000001192,142346.19999998808,139620.644,139626.5,139637.311,142354.032,,white
,Fixation,canvas.Screen,3_56_0_0,2022-03-01T10:16:12.161Z,,,,1,VA,2300.046000000002,timeout,,,,144640.09999996424,144637.411,142337.365,142347.30000001192,142354.032,144654.078,,white
,Stimulus,canvas.Screen,3_56_0_1,2022-03-01T10:16:12.261Z,,,,1,VA,100.00199999997858,timeout,,,,144740,144737.413,144637.411,144640.30000001192,144654.078,144754.08,,white
,Reaction,canvas.Screen,3_56_0_2,2022-03-01T10:16:12.450Z,,,,1,VA,170.9200000000128,response,,stim_detected,keydown(Space),144929.5,144925,144737.413,144740.30000001192,144754.08,144937.417,,white
,Trial,flow.Sequence,3_56_0,2022-03-01T10:16:12.451Z,,,,1,VA,2570.9679999999935,completion,,,,144929.80000001192,144925,142337.365,142347.30000001192,142354.032,144937.417,,white
,Frame,canvas.Frame,3_56,2022-03-01T10:16:12.451Z,,,,1,VA,2575.8679999761516,,,,,144930,144929.89999997616,142337.365,142346.39999997616,142354.032,144937.417,,white
,Fixation,canvas.Screen,3_57_0_0,2022-03-01T10:16:14.077Z,,,,1,A,1633.366000000009,timeout,,,,146556.09999996424,146554.116,144920.75,144931,144937.417,146570.783,,grey
,Stimulus,canvas.Screen,3_57_0_1,2022-03-01T10:16:14.178Z,,,,1,A,100.00200000000768,timeout,,,,146656.69999998808,146654.118,146554.116,146556.39999997616,146570.783,146670.785,,grey
,Reaction,canvas.Screen,3_57_0_2,2022-03-01T10:16:14.444Z,,,,1,A,248.11499997615465,response,,stim_detected,keydown(Space),146923.09999996424,146918.89999997616,146654.118,146656.89999997616,146670.785,146937.457,,grey
,Trial,flow.Sequence,3_57_0,2022-03-01T10:16:14.445Z,,,,1,A,1981.4829999761714,completion,,,,146923.59999996424,146918.89999997616,144920.75,144930.89999997616,144937.417,146937.457,,grey
,Frame,canvas.Frame,3_57,2022-03-01T10:16:14.445Z,,,,1,A,1986.2829999880923,,,,,146923.80000001192,146923.69999998808,144920.75,144930,144937.417,146937.457,,grey
,Fixation,canvas.Screen,3_58_0_0,2022-03-01T10:16:16.544Z,,,,1,VA,2100.042000000016,timeout,,,,149022.89999997616,149020.832,146920.79,146924.80000001192,146937.457,149037.499,,white
,Stimulus,canvas.Screen,3_58_0_1,2022-03-01T10:16:16.645Z,,,,1,VA,100.00199999997858,timeout,,,,149123.80000001192,149120.834,149020.832,149023.39999997616,149037.499,149137.501,,white
,Reaction,canvas.Screen,3_58_0_2,2022-03-01T10:16:16.852Z,,,,1,VA,189.29900001193164,response,,stim_detected,keydown(Space),149331.30000001192,149326.80000001192,149120.834,149124.09999996424,149137.501,149337.505,,white
,Trial,flow.Sequence,3_58_0,2022-03-01T10:16:16.853Z,,,,1,VA,2389.343000011926,completion,,,,149331.59999996424,149326.80000001192,146920.79,146924.80000001192,146937.457,149337.505,,white
,Frame,canvas.Frame,3_58,2022-03-01T10:16:16.853Z,,,,1,VA,2394.242999988084,,,,,149331.80000001192,149331.69999998808,146920.79,146923.80000001192,146937.457,149337.505,,white
,Fixation,canvas.Screen,3_59_0_0,2022-03-01T10:16:18.494Z,,,,0,V,1650.0329999999958,timeout,,,,150973.09999996424,150970.871,149320.838,149332.89999997616,149337.505,150987.538,,white
,Stimulus,canvas.Screen,3_59_0_1,2022-03-01T10:16:18.594Z,,,,0,V,100.00200000000768,timeout,,,,151073.30000001192,151070.873,150970.871,150973.39999997616,150987.538,151087.54,,white
,Reaction,canvas.Screen,3_59_0_2,2022-03-01T10:16:18.864Z,,,,0,V,251.05999996422906,response,,stim_detected,keydown(Space),151343,151338.59999996424,151070.873,151073.39999997616,151087.54,151354.212,,white
,Trial,flow.Sequence,3_59_0,2022-03-01T10:16:18.864Z,,,,0,V,2001.0949999642326,completion,,,,151343.30000001192,151338.59999996424,149320.838,149332.80000001192,149337.505,151354.212,,white
,Frame,canvas.Frame,3_59,2022-03-01T10:16:18.865Z,,,,0,V,2005.8949999761535,,,,,151343.5,151343.39999997616,149320.838,149331.89999997616,149337.505,151354.212,,white
,Fixation,canvas.Screen,3_60_0_0,2022-03-01T10:16:21.194Z,,,,0,V,2333.3800000000047,timeout,,,,153673,153670.925,151337.545,151344.59999996424,151354.212,153687.592,,white
,Stimulus,canvas.Screen,3_60_0_1,2022-03-01T10:16:21.294Z,,,,0,V,100.00200000000768,timeout,,,,153773.09999996424,153770.927,153670.925,153673.09999996424,153687.592,153787.594,,white
,Reaction,canvas.Screen,3_60_0_2,2022-03-01T10:16:21.517Z,,,,0,V,203.90599999998813,response,,stim_detected,keydown(Space),153996.09999996424,153991.5,153770.927,153773.30000001192,153787.594,154004.265,,white
,Trial,flow.Sequence,3_60_0,2022-03-01T10:16:21.518Z,,,,0,V,2637.2880000000005,completion,,,,153996.39999997616,153991.5,151337.545,151344.5,151354.212,154004.265,,white
,Frame,canvas.Frame,3_60,2022-03-01T10:16:21.518Z,,,,0,V,2642.2880000000005,,,,,153996.5,153996.5,151337.545,151343.59999996424,151354.212,154004.265,,white
,Fixation,canvas.Screen,3_61_0_0,2022-03-01T10:16:23.544Z,,,,1,VA,2033.3739999999816,timeout,,,,156022.89999997616,156020.972,153987.598,153997.59999996424,154004.265,156037.639,,white
,Stimulus,canvas.Screen,3_61_0_1,2022-03-01T10:16:23.644Z,,,,1,VA,100.00200000000768,timeout,,,,156122.80000001192,156120.974,156020.972,156023,156037.639,156137.641,,white
,Reaction,canvas.Screen,3_61_0_2,2022-03-01T10:16:23.827Z,,,,1,VA,164.5589999880758,response,,stim_detected,keydown(Space),156306.19999998808,156302.19999998808,156120.974,156122.89999997616,156137.641,156320.978,,white
,Trial,flow.Sequence,3_61_0,2022-03-01T10:16:23.828Z,,,,1,VA,2297.934999988065,completion,,,,156306.39999997616,156302.19999998808,153987.598,153997.59999996424,154004.265,156320.978,,white
,Frame,canvas.Frame,3_61,2022-03-01T10:16:23.828Z,,,,1,VA,2302.134999976144,,,,,156306.39999997616,156306.39999997616,153987.598,153996.69999998808,154004.265,156320.978,,white
,Fixation,canvas.Screen,3_62_0_0,2022-03-01T10:16:25.627Z,,,,1,VA,1800.0359999999928,timeout,,,,158106,158104.347,156304.311,156307.09999996424,156320.978,158121.014,,white
,Stimulus,canvas.Screen,3_62_0_1,2022-03-01T10:16:25.728Z,,,,1,VA,100.00200000000768,timeout,,,,158206.80000001192,158204.349,158104.347,158106.30000001192,158121.014,158221.016,,white
,Reaction,canvas.Screen,3_62_0_2,2022-03-01T10:16:25.907Z,,,,1,VA,160.28400001191767,response,,stim_detected,keydown(Space),158385.69999998808,158381.30000001192,158204.349,158206.89999997616,158221.016,158387.686,,white
,Trial,flow.Sequence,3_62_0,2022-03-01T10:16:25.907Z,,,,1,VA,2060.322000011918,completion,,,,158386,158381.30000001192,156304.311,156307.09999996424,156320.978,158387.686,,white
,Frame,canvas.Frame,3_62,2022-03-01T10:16:25.908Z,,,,1,VA,2065.1219999642344,,,,,158386.19999998808,158386.09999996424,156304.311,156306.5,156320.978,158387.686,,white
,Fixation,canvas.Screen,3_63_0_0,2022-03-01T10:16:28.094Z,,,,1,A,2200.0440000000235,timeout,,,,160572.19999998808,160571.063,158371.019,158387.19999998808,158387.686,160587.73,,grey
,Stimulus,canvas.Screen,3_63_0_1,2022-03-01T10:16:28.195Z,,,,1,A,100.00199999997858,timeout,,,,160673.80000001192,160671.065,160571.063,160572.30000001192,160587.73,160687.732,,grey
,Reaction,canvas.Screen,3_63_0_2,2022-03-01T10:16:28.445Z,,,,1,A,231.46799998809,response,,stim_detected,keydown(Space),160923.69999998808,160919.19999998808,160671.065,160674,160687.732,160937.737,,grey
,Trial,flow.Sequence,3_63_0,2022-03-01T10:16:28.445Z,,,,1,A,2531.513999988092,completion,,,,160924,160919.19999998808,158371.019,158387.19999998808,158387.686,160937.737,,grey
,Frame,canvas.Frame,3_63,2022-03-01T10:16:28.446Z,,,,1,A,2536.4139999642503,,,,,160924.19999998808,160924.09999996424,158371.019,158386.30000001192,158387.686,160937.737,,grey
,Fixation,canvas.Screen,3_64_0_0,2022-03-01T10:16:30.212Z,,,,0,V,1766.7020000000193,timeout,,,,162690.09999996424,162687.772,160921.07,160925.30000001192,160937.737,162704.439,,white
,Stimulus,canvas.Screen,3_64_0_1,2022-03-01T10:16:30.311Z,,,,0,V,100.00199999997858,timeout,,,,162789.30000001192,162787.774,162687.772,162690.19999998808,162704.439,162804.441,,white
,Reaction,canvas.Screen,3_64_0_2,2022-03-01T10:16:30.526Z,,,,0,V,195.55900000000838,response,,stim_detected,keydown(Space),163004.5,163000,162787.774,162789.39999997616,162804.441,163021.112,,white
,Trial,flow.Sequence,3_64_0,2022-03-01T10:16:30.527Z,,,,0,V,2062.2630000000063,completion,,,,163005.09999996424,163000,160921.07,160925.30000001192,160937.737,163021.112,,white
,Frame,canvas.Frame,3_64,2022-03-01T10:16:30.527Z,,,,0,V,2067.4629999880854,,,,,163005.30000001192,163005.19999998808,160921.07,160924.30000001192,160937.737,163021.112,,white
,Fixation,canvas.Screen,3_65_0_0,2022-03-01T10:16:32.744Z,,,,0,V,2216.7110000000102,timeout,,,,165222.69999998808,165221.156,163004.445,163007.69999998808,163021.112,165237.823,,white
,Stimulus,canvas.Screen,3_65_0_1,2022-03-01T10:16:32.844Z,,,,0,V,100.00200000000768,timeout,,,,165322.5,165321.158,165221.156,165222.89999997616,165237.823,165337.825,,white
,Reaction,canvas.Screen,3_65_0_2,2022-03-01T10:16:33.034Z,,,,0,V,170.87499998806743,response,,stim_detected,keydown(Space),165512.5,165508.69999998808,165321.158,165322.59999996424,165337.825,165521.162,,white
,Trial,flow.Sequence,3_65_0,2022-03-01T10:16:33.034Z,,,,0,V,2487.5879999880854,completion,,,,165512.69999998808,165508.69999998808,163004.445,163007.59999996424,163021.112,165521.162,,white
,Frame,canvas.Frame,3_65,2022-03-01T10:16:33.034Z,,,,0,V,2491.5879999880854,,,,,165512.80000001192,165512.69999998808,163004.445,163005.39999997616,163021.112,165521.162,,white
,Fixation,canvas.Screen,3_66_0_0,2022-03-01T10:16:34.728Z,,,,1,VA,1700.033999999985,timeout,,,,167206.39999997616,167204.529,165504.495,165513.5,165521.162,167221.196,,white
,Stimulus,canvas.Screen,3_66_0_1,2022-03-01T10:16:34.828Z,,,,1,VA,100.00200000000768,timeout,,,,167306.89999997616,167304.531,167204.529,167206.59999996424,167221.196,167321.198,,white
,Reaction,canvas.Screen,3_66_0_2,2022-03-01T10:16:35.011Z,,,,1,VA,163.60200001191697,response,,stim_detected,keydown(Space),167489.19999998808,167484.80000001192,167304.531,167307,167321.198,167504.535,,white
,Trial,flow.Sequence,3_66_0,2022-03-01T10:16:35.011Z,,,,1,VA,1963.6380000119098,completion,,,,167489.5,167484.80000001192,165504.495,165513.5,165521.162,167504.535,,white
,Frame,canvas.Frame,3_66,2022-03-01T10:16:35.011Z,,,,1,VA,1968.437999964226,,,,,167489.69999998808,167489.59999996424,165504.495,165512.89999997616,165521.162,167504.535,,white
,Fixation,canvas.Screen,3_67_0_0,2022-03-01T10:16:37.127Z,,,,1,A,2116.7090000000026,timeout,,,,169605.89999997616,169604.577,167487.868,167491,167504.535,169621.244,,grey
,Stimulus,canvas.Screen,3_67_0_1,2022-03-01T10:16:37.228Z,,,,1,A,100.00200000000768,timeout,,,,169706.69999998808,169704.579,169604.577,169606.09999996424,169621.244,169721.246,,grey
,Reaction,canvas.Screen,3_67_0_2,2022-03-01T10:16:37.439Z,,,,1,A,191.45399998806533,response,,stim_detected,keydown(Space),169917.30000001192,169912.69999998808,169704.579,169706.80000001192,169721.246,169921.25,,grey
,Trial,flow.Sequence,3_67_0,2022-03-01T10:16:37.439Z,,,,1,A,2408.1649999880756,completion,,,,169917.59999996424,169912.69999998808,167487.868,167491,167504.535,169921.25,,grey
,Frame,canvas.Frame,3_67,2022-03-01T10:16:37.440Z,,,,1,A,2413.1649999880756,,,,,169917.89999997616,169917.69999998808,167487.868,167489.80000001192,167504.535,169921.25,,grey
,Fixation,canvas.Screen,3_68_0_0,2022-03-01T10:16:39.179Z,,,,0,V,1750.0350000000035,timeout,,,,171657.30000001192,171654.618,169904.583,169919.09999996424,169921.25,171671.285,,white
,Stimulus,canvas.Screen,3_68_0_1,2022-03-01T10:16:39.278Z,,,,0,V,100.00200000000768,timeout,,,,171756.5,171754.62,171654.618,171657.39999997616,171671.285,171771.287,,white
,Reaction,canvas.Screen,3_68_0_2,2022-03-01T10:16:39.489Z,,,,0,V,192.21299999998882,response,,stim_detected,keydown(Space),171967.69999998808,171963.5,171754.62,171756.59999996424,171771.287,171971.291,,white
,Trial,flow.Sequence,3_68_0,2022-03-01T10:16:39.490Z,,,,0,V,2042.25,completion,,,,171968,171963.5,169904.583,169919,169921.25,171971.291,,white
,Frame,canvas.Frame,3_68,2022-03-01T10:16:39.490Z,,,,0,V,2046.8499999642372,,,,,171968.09999996424,171968.09999996424,169904.583,169917.89999997616,169921.25,171971.291,,white
,Fixation,canvas.Screen,3_69_0_0,2022-03-01T10:16:41.295Z,,,,1,A,1833.3699999999953,timeout,,,,173773.5,173771.327,171954.624,171969.30000001192,171971.291,173804.661,,grey
,Stimulus,canvas.Screen,3_69_0_1,2022-03-01T10:16:41.412Z,,,,1,A,100.00200000000768,timeout,,,,173889.80000001192,173887.996,173771.327,173773.69999998808,173804.661,173904.663,,grey
,Reaction,canvas.Screen,3_69_0_2,2022-03-01T10:16:41.687Z,,,,1,A,255.83699999999953,response,,stim_detected,keydown(Space),174164.89999997616,174160.5,173887.996,173890,173904.663,174171.335,,grey
,Trial,flow.Sequence,3_69_0,2022-03-01T10:16:41.687Z,,,,1,A,2189.2090000000026,completion,,,,174165.19999998808,174160.5,171954.624,171969.19999998808,171971.291,174171.335,,grey
,Frame,canvas.Frame,3_69,2022-03-01T10:16:41.687Z,,,,1,A,2193.9089999880816,,,,,174165.39999997616,174165.19999998808,171954.624,171968.30000001192,171971.291,174171.335,,grey
,Fixation,canvas.Screen,3_70_0_0,2022-03-01T10:16:43.645Z,,,,1,VA,1966.7060000000056,timeout,,,,176123.30000001192,176121.374,174154.668,174166.59999996424,174171.335,176138.041,,white
,Stimulus,canvas.Screen,3_70_0_1,2022-03-01T10:16:43.745Z,,,,1,VA,100.00200000000768,timeout,,,,176223.19999998808,176221.376,176121.374,176123.5,176138.041,176238.043,,white
,Reaction,canvas.Screen,3_70_0_2,2022-03-01T10:16:43.905Z,,,,1,VA,140.2570000119158,response,,stim_detected,keydown(Space),176383,176378.30000001192,176221.376,176223.39999997616,176238.043,176388.046,,white
,Trial,flow.Sequence,3_70_0,2022-03-01T10:16:43.905Z,,,,1,VA,2206.965000011929,completion,,,,176383.30000001192,176378.30000001192,174154.668,174166.5,174171.335,176388.046,,white
,Frame,canvas.Frame,3_70,2022-03-01T10:16:43.905Z,,,,1,VA,2212.0649999761663,,,,,176383.39999997616,176383.39999997616,174154.668,174165.5,174171.335,176388.046,,white
,Fixation,canvas.Screen,3_71_0_0,2022-03-01T10:16:46.212Z,,,,1,VA,2316.712999999989,timeout,,,,178690.5,178688.092,176371.379,176384.5,176388.046,178704.759,,white
,Stimulus,canvas.Screen,3_71_0_1,2022-03-01T10:16:46.312Z,,,,1,VA,100.00200000000768,timeout,,,,178790.09999996424,178788.094,178688.092,178690.59999996424,178704.759,178804.761,,white
,Reaction,canvas.Screen,3_71_0_2,2022-03-01T10:16:46.528Z,,,,1,VA,197.43899998808047,response,,stim_detected,keydown(Space),179006.5,179002.19999998808,178788.094,178790.5,178804.761,179021.432,,white
,Trial,flow.Sequence,3_71_0,2022-03-01T10:16:46.529Z,,,,1,VA,2614.153999988077,completion,,,,179006.89999997616,179002.19999998808,176371.379,176384.39999997616,176388.046,179021.432,,white
,Frame,canvas.Frame,3_71,2022-03-01T10:16:46.529Z,,,,1,VA,2618.953999999998,,,,,179007.09999996424,179007,176371.379,176383.59999996424,176388.046,179021.432,,white
,Fixation,canvas.Screen,3_72_0_0,2022-03-01T10:16:48.380Z,,,,1,A,1850.0370000000112,timeout,,,,180857.59999996424,180854.802,179004.765,179008.39999997616,179021.432,180871.469,,grey
,Stimulus,canvas.Screen,3_72_0_1,2022-03-01T10:16:48.479Z,,,,1,A,100.00199999997858,timeout,,,,180956.89999997616,180954.804,180854.802,180857.80000001192,180871.469,180971.471,,grey
,Reaction,canvas.Screen,3_72_0_2,2022-03-01T10:16:48.701Z,,,,1,A,203.4289999761677,response,,stim_detected,keydown(Space),181179.39999997616,181174.89999997616,180954.804,180957.19999998808,180971.471,181188.142,,grey
,Trial,flow.Sequence,3_72_0,2022-03-01T10:16:48.702Z,,,,1,A,2153.4679999761574,completion,,,,181179.80000001192,181174.89999997616,179004.765,179008.30000001192,179021.432,181188.142,,grey
,Frame,canvas.Frame,3_72,2022-03-01T10:16:48.702Z,,,,1,A,2158.3680000119202,,,,,181179.89999997616,181179.80000001192,179004.765,179007.19999998808,179021.432,181188.142,,grey
,Fixation,canvas.Screen,3_73_0_0,2022-03-01T10:16:50.613Z,,,,1,A,1916.7050000000163,timeout,,,,183090.5,183088.18,181171.475,181181,181188.142,183104.847,,grey
,Stimulus,canvas.Screen,3_73_0_1,2022-03-01T10:16:50.714Z,,,,1,A,100.00199999997858,timeout,,,,183191.69999998808,183188.182,183088.18,183090.80000001192,183104.847,183204.849,,grey
,Reaction,canvas.Screen,3_73_0_2,2022-03-01T10:16:50.906Z,,,,1,A,174.9510000119335,response,,stim_detected,keydown(Space),183384.09999996424,183379.80000001192,183188.182,183192.30000001192,183204.849,183388.186,,grey
,Trial,flow.Sequence,3_73_0,2022-03-01T10:16:50.906Z,,,,1,A,2191.6580000119284,completion,,,,183384.39999997616,183379.80000001192,181171.475,181180.89999997616,181188.142,183388.186,,grey
,Frame,canvas.Frame,3_73,2022-03-01T10:16:50.907Z,,,,1,A,2196.2579999761656,,,,,183384.59999996424,183384.39999997616,181171.475,181180.09999996424,181188.142,183388.186,,grey
,Fixation,canvas.Screen,3_74_0_0,2022-03-01T10:16:52.412Z,,,,1,VA,1516.6970000000147,timeout,,,,184890.19999998808,184888.216,183371.519,183385.80000001192,183388.186,184904.883,,white
,Stimulus,canvas.Screen,3_74_0_1,2022-03-01T10:16:52.512Z,,,,1,VA,100.00200000000768,timeout,,,,184990.30000001192,184988.218,184888.216,184890.39999997616,184904.883,185004.885,,white
,Reaction,canvas.Screen,3_74_0_2,2022-03-01T10:16:52.688Z,,,,1,VA,156.81499998806976,response,,stim_detected,keydown(Space),185166,185161.69999998808,184988.218,184990.39999997616,185004.885,185171.555,,white
,Trial,flow.Sequence,3_74_0,2022-03-01T10:16:52.688Z,,,,1,VA,1773.513999988092,completion,,,,185166.30000001192,185161.69999998808,183371.519,183385.59999996424,183388.186,185171.555,,white
,Frame,canvas.Frame,3_74,2022-03-01T10:16:52.689Z,,,,1,VA,1778.2139999761712,,,,,185166.5,185166.39999997616,183371.519,183384.69999998808,183388.186,185171.555,,white
,Fixation,canvas.Screen,3_75_0_0,2022-03-01T10:16:54.262Z,,,,1,VA,1583.3650000000198,timeout,,,,186740.30000001192,186738.253,185154.888,185167.59999996424,185171.555,186754.92,,white
,Stimulus,canvas.Screen,3_75_0_1,2022-03-01T10:16:54.362Z,,,,1,VA,100.00199999997858,timeout,,,,186839.59999996424,186838.255,186738.253,186740.5,186754.92,186854.922,,white
,Reaction,canvas.Screen,3_75_0_2,2022-03-01T10:16:54.563Z,,,,1,VA,181.67799996424583,response,,stim_detected,keydown(Space),187041.19999998808,187036.59999996424,186838.255,186839.80000001192,186854.922,187054.926,,white
,Trial,flow.Sequence,3_75_0,2022-03-01T10:16:54.564Z,,,,1,VA,1865.0449999642442,completion,,,,187041.59999996424,187036.59999996424,185154.888,185167.59999996424,185171.555,187054.926,,white
,Frame,canvas.Frame,3_75,2022-03-01T10:16:54.564Z,,,,1,VA,1870.0449999642442,,,,,187041.69999998808,187041.59999996424,185154.888,185166.69999998808,185171.555,187054.926,,white
,Fixation,canvas.Screen,3_76_0_0,2022-03-01T10:16:56.913Z,,,,0,V,2350.0469999999914,timeout,,,,189390.39999997616,189388.306,187038.259,187042.80000001192,187054.926,189404.973,,white
,Stimulus,canvas.Screen,3_76_0_1,2022-03-01T10:16:57.013Z,,,,0,V,100.00200000000768,timeout,,,,189490.59999996424,189488.308,189388.306,189390.69999998808,189404.973,189504.975,,white
,Reaction,canvas.Screen,3_76_0_2,2022-03-01T10:16:57.270Z,,,,0,V,238.6249999642314,response,,stim_detected,keydown(Space),189748.09999996424,189743.59999996424,189488.308,189490.80000001192,189504.975,189754.98,,white
,Trial,flow.Sequence,3_76_0,2022-03-01T10:16:57.271Z,,,,0,V,2688.6739999642305,completion,,,,189748.39999997616,189743.59999996424,187038.259,187042.69999998808,187054.926,189754.98,,white
,Frame,canvas.Frame,3_76,2022-03-01T10:16:57.271Z,,,,0,V,2693.5739999999932,,,,,189748.59999996424,189748.5,187038.259,187041.89999997616,187054.926,189754.98,,white
,Fixation,canvas.Screen,3_77_0_0,2022-03-01T10:16:59.580Z,,,,1,VA,2316.712999999989,timeout,,,,192057.59999996424,192055.026,189738.313,189749.69999998808,189754.98,192071.693,,white
,Stimulus,canvas.Screen,3_77_0_1,2022-03-01T10:16:59.679Z,,,,1,VA,100.00200000000768,timeout,,,,192156.80000001192,192155.028,192055.026,192057.80000001192,192071.693,192171.695,,white
,Reaction,canvas.Screen,3_77_0_2,2022-03-01T10:16:59.896Z,,,,1,VA,197.70499997615116,response,,stim_detected,keydown(Space),192373.89999997616,192369.39999997616,192155.028,192156.89999997616,192171.695,192388.366,,white
,Trial,flow.Sequence,3_77_0,2022-03-01T10:16:59.896Z,,,,1,VA,2614.4199999761477,completion,,,,192374.19999998808,192369.39999997616,189738.313,189749.59999996424,189754.98,192388.366,,white
,Frame,canvas.Frame,3_77,2022-03-01T10:16:59.897Z,,,,1,VA,2619.3200000119105,,,,,192374.39999997616,192374.30000001192,189738.313,189748.69999998808,189754.98,192388.366,,white
,Fixation,canvas.Screen,3_78_0_0,2022-03-01T10:17:01.430Z,,,,0,V,1533.3640000000014,timeout,,,,193907.69999998808,193905.063,192371.699,192375.39999997616,192388.366,193921.73,,white
,Stimulus,canvas.Screen,3_78_0_1,2022-03-01T10:17:01.530Z,,,,0,V,100.00199999997858,timeout,,,,194007.80000001192,194005.065,193905.063,193907.89999997616,193921.73,194021.732,,white
,Reaction,canvas.Screen,3_78_0_2,2022-03-01T10:17:01.753Z,,,,0,V,204.46799998809,response,,stim_detected,keydown(Space),194231.09999996424,194226.19999998808,194005.065,194008,194021.732,194238.403,,white
,Trial,flow.Sequence,3_78_0,2022-03-01T10:17:01.754Z,,,,0,V,1837.83399998807,completion,,,,194231.39999997616,194226.19999998808,192371.699,192375.30000001192,192388.366,194238.403,,white
,Frame,canvas.Frame,3_78,2022-03-01T10:17:01.754Z,,,,0,V,1843.033999976149,,,,,194231.59999996424,194231.39999997616,192371.699,192374.59999996424,192388.366,194238.403,,white
,Fixation,canvas.Screen,3_79_0_0,2022-03-01T10:17:03.563Z,,,,1,VA,1816.7030000000086,timeout,,,,196040.19999998808,196038.439,194221.736,194232.59999996424,194238.403,196055.106,,white
,Stimulus,canvas.Screen,3_79_0_1,2022-03-01T10:17:03.663Z,,,,1,VA,100.00200000000768,timeout,,,,196140.19999998808,196138.441,196038.439,196040.39999997616,196055.106,196155.108,,white
,Reaction,canvas.Screen,3_79_0_2,2022-03-01T10:17:03.878Z,,,,1,VA,196.09199998807162,response,,stim_detected,keydown(Space),196355.80000001192,196351.19999998808,196138.441,196140.39999997616,196155.108,196371.779,,white
,Trial,flow.Sequence,3_79_0,2022-03-01T10:17:03.878Z,,,,1,VA,2112.796999988088,completion,,,,196356,196351.19999998808,194221.736,194232.5,194238.403,196371.779,,white
,Frame,canvas.Frame,3_79,2022-03-01T10:17:03.879Z,,,,1,VA,2117.696999964246,,,,,196356.19999998808,196356.09999996424,194221.736,194231.69999998808,194238.403,196371.779,,white
,Fixation,canvas.Screen,3_80_0_0,2022-03-01T10:17:06.380Z,,,,1,VA,2500.0499999999884,timeout,,,,198857,198855.162,196355.112,196357.19999998808,196371.779,198871.829,,white
,Stimulus,canvas.Screen,3_80_0_1,2022-03-01T10:17:06.480Z,,,,1,VA,100.00200000000768,timeout,,,,198957.30000001192,198955.164,198855.162,198857.30000001192,198871.829,198971.831,,white
,Reaction,canvas.Screen,3_80_0_2,2022-03-01T10:17:06.679Z,,,,1,VA,180.1689999999944,response,,stim_detected,keydown(Space),199156.80000001192,199152,198955.164,198957.39999997616,198971.831,199171.835,,white
,Trial,flow.Sequence,3_80_0,2022-03-01T10:17:06.680Z,,,,1,VA,2780.2209999999905,completion,,,,199157.09999996424,199152,196355.112,196357.19999998808,196371.779,199171.835,,white
,Frame,canvas.Frame,3_80,2022-03-01T10:17:06.680Z,,,,1,VA,2785.5210000119114,,,,,199157.39999997616,199157.30000001192,196355.112,196356.30000001192,196371.779,199171.835,,white
,Fixation,canvas.Screen,3_81_0_0,2022-03-01T10:17:08.947Z,,,,0,V,2266.7119999999995,timeout,,,,201424.39999997616,201421.88,199155.168,199158.5,199171.835,201438.547,,white
,Stimulus,canvas.Screen,3_81_0_1,2022-03-01T10:17:09.046Z,,,,0,V,100.00200000000768,timeout,,,,201523.89999997616,201521.882,201421.88,201424.5,201438.547,201538.549,,white
,Reaction,canvas.Screen,3_81_0_2,2022-03-01T10:17:09.239Z,,,,0,V,173.25100001192186,response,,stim_detected,keydown(Space),201716.30000001192,201711.80000001192,201521.882,201524.09999996424,201538.549,201721.886,,white
,Trial,flow.Sequence,3_81_0,2022-03-01T10:17:09.240Z,,,,0,V,2539.965000011929,completion,,,,201717.30000001192,201711.80000001192,199155.168,199158.39999997616,199171.835,201721.886,,white
,Frame,canvas.Frame,3_81,2022-03-01T10:17:09.240Z,,,,0,V,2545.5649999761663,,,,,201717.5,201717.39999997616,199155.168,199157.5,199171.835,201721.886,,white
,Fixation,canvas.Screen,3_82_0_0,2022-03-01T10:17:11.196Z,,,,0,V,1966.7060000000056,timeout,,,,203673.80000001192,203671.925,201705.219,201718.5,201721.886,203688.592,,white
,Stimulus,canvas.Screen,3_82_0_1,2022-03-01T10:17:11.296Z,,,,0,V,100.00200000000768,timeout,,,,203773.80000001192,203771.927,203671.925,203674,203688.592,203788.594,,white
,Reaction,canvas.Screen,3_82_0_2,2022-03-01T10:17:11.485Z,,,,0,V,169.30599997614627,response,,stim_detected,keydown(Space),203962.09999996424,203957.89999997616,203771.927,203773.89999997616,203788.594,203971.931,,white
,Trial,flow.Sequence,3_82_0,2022-03-01T10:17:11.485Z,,,,0,V,2236.0139999761595,completion,,,,203962.39999997616,203957.89999997616,201705.219,201718.5,201721.886,203971.931,,white
,Frame,canvas.Frame,3_82,2022-03-01T10:17:11.485Z,,,,0,V,2240.6140000000014,,,,,203962.59999996424,203962.5,201705.219,201717.59999996424,201721.886,203971.931,,white
,Fixation,canvas.Screen,3_83_0_0,2022-03-01T10:17:13.780Z,,,,0,V,2300.046000000002,timeout,,,,206257.09999996424,206255.31,203955.264,203963.80000001192,203971.931,206271.977,,white
,Stimulus,canvas.Screen,3_83_0_1,2022-03-01T10:17:13.881Z,,,,0,V,100.00199999997858,timeout,,,,206358.09999996424,206355.312,206255.31,206257.30000001192,206271.977,206371.979,,white
,Reaction,canvas.Screen,3_83_0_2,2022-03-01T10:17:14.082Z,,,,0,V,182.720999988087,response,,stim_detected,keydown(Space),206559.30000001192,206554.69999998808,206355.312,206358.19999998808,206371.979,206571.983,,white
,Trial,flow.Sequence,3_83_0,2022-03-01T10:17:14.082Z,,,,0,V,2582.7689999880677,completion,,,,206559.69999998808,206554.69999998808,203955.264,203963.69999998808,203971.931,206571.983,,white
,Frame,canvas.Frame,3_83,2022-03-01T10:17:14.082Z,,,,0,V,2587.7689999880677,,,,,206559.80000001192,206559.69999998808,203955.264,203962.69999998808,203971.931,206571.983,,white
,Fixation,canvas.Screen,3_84_0_0,2022-03-01T10:17:16.096Z,,,,1,A,2016.7069999999949,timeout,,,,208573.30000001192,208572.023,206555.316,206560.89999997616,206571.983,208588.69,,grey
,Stimulus,canvas.Screen,3_84_0_1,2022-03-01T10:17:16.196Z,,,,1,A,100.00200000000768,timeout,,,,208673.19999998808,208672.025,208572.023,208573.39999997616,208588.69,208688.692,,grey
,Reaction,canvas.Screen,3_84_0_2,2022-03-01T10:17:16.509Z,,,,1,A,292.80799999999,response,,stim_detected,keydown(Space),208985.89999997616,208981.5,208672.025,208673.30000001192,208688.692,208988.698,,grey
,Trial,flow.Sequence,3_84_0,2022-03-01T10:17:16.509Z,,,,1,A,2409.5169999999925,completion,,,,208986.19999998808,208981.5,206555.316,206560.80000001192,206571.983,208988.698,,grey
,Frame,canvas.Frame,3_84,2022-03-01T10:17:16.509Z,,,,1,A,2414.3170000119135,,,,,208986.39999997616,208986.30000001192,206555.316,206559.89999997616,206571.983,208988.698,,grey
,Fixation,canvas.Screen,3_85_0_0,2022-03-01T10:17:18.646Z,,,,1,A,2150.043000000005,timeout,,,,211123.09999996424,211122.074,208972.031,208987.39999997616,208988.698,211138.741,,grey
,Stimulus,canvas.Screen,3_85_0_1,2022-03-01T10:17:18.748Z,,,,1,A,100.00199999997858,timeout,,,,211225,211222.076,211122.074,211123.30000001192,211138.741,211238.743,,grey
,Reaction,canvas.Screen,3_85_0_2,2022-03-01T10:17:18.975Z,,,,1,A,208.75700000001234,response,,stim_detected,keydown(Space),211452.30000001192,211447.5,211222.076,211225.5,211238.743,211455.414,,grey
,Trial,flow.Sequence,3_85_0,2022-03-01T10:17:18.975Z,,,,1,A,2458.801999999996,completion,,,,211452.59999996424,211447.5,208972.031,208987.30000001192,208988.698,211455.414,,grey
,Frame,canvas.Frame,3_85,2022-03-01T10:17:18.976Z,,,,1,A,2463.9019999642333,,,,,211452.80000001192,211452.59999996424,208972.031,208986.39999997616,208988.698,211455.414,,grey
,Fixation,canvas.Screen,3_86_0_0,2022-03-01T10:17:21.064Z,,,,1,VA,2100.042000000016,timeout,,,,213541.30000001192,213538.789,211438.747,211453.89999997616,211455.414,213555.456,,white
,Stimulus,canvas.Screen,3_86_0_1,2022-03-01T10:17:21.164Z,,,,1,VA,100.00200000000768,timeout,,,,213641.19999998808,213638.791,213538.789,213541.89999997616,213555.456,213655.458,,white
,Reaction,canvas.Screen,3_86_0_2,2022-03-01T10:17:21.362Z,,,,1,VA,178.84200001190766,response,,stim_detected,keydown(Space),213838.80000001192,213834.30000001192,213638.791,213641.30000001192,213655.458,213855.462,,white
,Trial,flow.Sequence,3_86_0,2022-03-01T10:17:21.362Z,,,,1,VA,2378.886000011931,completion,,,,213839.09999996424,213834.30000001192,211438.747,211453.89999997616,211455.414,213855.462,,white
,Frame,canvas.Frame,3_86,2022-03-01T10:17:21.362Z,,,,1,VA,2383.6859999642475,,,,,213839.30000001192,213839.09999996424,211438.747,211452.89999997616,211455.414,213855.462,,white
,Fixation,canvas.Screen,3_87_0_0,2022-03-01T10:17:23.297Z,,,,1,A,1933.372000000003,timeout,,,,215774.09999996424,215772.167,213838.795,213840.30000001192,213855.462,215788.834,,grey
,Stimulus,canvas.Screen,3_87_0_1,2022-03-01T10:17:23.397Z,,,,1,A,100.00200000000768,timeout,,,,215874.30000001192,215872.169,215772.167,215774.30000001192,215788.834,215888.836,,grey
,Reaction,canvas.Screen,3_87_0_2,2022-03-01T10:17:23.607Z,,,,1,A,191.26399996422697,response,,stim_detected,keydown(Space),216084.39999997616,216080.09999996424,215872.169,215874.5,215888.836,216088.84,,grey
,Trial,flow.Sequence,3_87_0,2022-03-01T10:17:23.608Z,,,,1,A,2224.6379999642377,completion,,,,216084.69999998808,216080.09999996424,213838.795,213840.19999998808,213855.462,216088.84,,grey
,Frame,canvas.Frame,3_87,2022-03-01T10:17:23.608Z,,,,1,A,2229.4379999761586,,,,,216084.89999997616,216084.89999997616,213838.795,213839.39999997616,213855.462,216088.84,,grey
,Fixation,canvas.Screen,3_88_0_0,2022-03-01T10:17:25.664Z,,,,1,A,2066.7080000000133,timeout,,,,218141.09999996424,218138.881,216072.173,216086,216088.84,218155.548,,grey
,Stimulus,canvas.Screen,3_88_0_1,2022-03-01T10:17:25.764Z,,,,1,A,100.00199999997858,timeout,,,,218241.5,218238.883,218138.881,218141.19999998808,218155.548,218255.55,,grey
,Reaction,canvas.Screen,3_88_0_2,2022-03-01T10:17:26.001Z,,,,1,A,218.45000000001164,response,,stim_detected,keydown(Space),218478.30000001192,218474,218238.883,218241.69999998808,218255.55,218505.555,,grey
,Trial,flow.Sequence,3_88_0,2022-03-01T10:17:26.002Z,,,,1,A,2385.1600000000035,completion,,,,218478.59999996424,218474,216072.173,216085.89999997616,216088.84,218505.555,,grey
,Frame,canvas.Frame,3_88,2022-03-01T10:17:26.002Z,,,,1,A,2389.7599999642407,,,,,218478.80000001192,218478.59999996424,216072.173,216085.09999996424,216088.84,218505.555,,grey
,Fixation,canvas.Screen,3_89_0_0,2022-03-01T10:17:27.716Z,,,,1,VA,1700.0340000000142,timeout,,,,220192.59999996424,220188.922,218472.221,218479.80000001192,218505.555,220205.589,,white
,Stimulus,canvas.Screen,3_89_0_1,2022-03-01T10:17:27.815Z,,,,1,VA,100.00199999997858,timeout,,,,220291.59999996424,220288.924,220188.922,220193.30000001192,220205.589,220305.591,,white
,Reaction,canvas.Screen,3_89_0_2,2022-03-01T10:17:28.056Z,,,,1,VA,222.30899997617234,response,,stim_detected,keydown(Space),220532.5,220527.89999997616,220288.924,220291.69999998808,220305.591,220538.929,,white
,Trial,flow.Sequence,3_89_0,2022-03-01T10:17:28.056Z,,,,1,VA,2022.3449999761651,completion,,,,220532.80000001192,220527.89999997616,218472.221,218479.69999998808,218505.555,220538.929,,white
,Frame,canvas.Frame,3_89,2022-03-01T10:17:28.056Z,,,,1,VA,2027.3449999761651,,,,,220533,220532.89999997616,218472.221,218478.89999997616,218505.555,220538.929,,white
,Fixation,canvas.Screen,3_90_0_0,2022-03-01T10:17:30.081Z,,,,1,A,2033.3740000000107,timeout,,,,222557.39999997616,222555.636,220522.262,220534.09999996424,220538.929,222572.303,,grey
,Stimulus,canvas.Screen,3_90_0_1,2022-03-01T10:17:30.181Z,,,,1,A,100.00199999997858,timeout,,,,222657.59999996424,222655.638,222555.636,222557.59999996424,222572.303,222672.305,,grey
,Reaction,canvas.Screen,3_90_0_2,2022-03-01T10:17:30.398Z,,,,1,A,198.2949999642442,response,,stim_detected,keydown(Space),222875.19999998808,222870.59999996424,222655.638,222657.80000001192,222672.305,222888.976,,grey
,Trial,flow.Sequence,3_90_0,2022-03-01T10:17:30.399Z,,,,1,A,2331.6709999642335,completion,,,,222875.59999996424,222870.59999996424,220522.262,220533.89999997616,220538.929,222888.976,,grey
,Frame,canvas.Frame,3_90,2022-03-01T10:17:30.399Z,,,,1,A,2336.7709999880753,,,,,222876,222875.69999998808,220522.262,220533.09999996424,220538.929,222888.976,,grey
,Fixation,canvas.Screen,3_91_0_0,2022-03-01T10:17:32.081Z,,,,0,V,1683.3669999999984,timeout,,,,224557.80000001192,224555.676,222872.309,222878.19999998808,222888.976,224572.343,,white
,Stimulus,canvas.Screen,3_91_0_1,2022-03-01T10:17:32.181Z,,,,0,V,100.00200000000768,timeout,,,,224657.89999997616,224655.678,224555.676,224557.89999997616,224572.343,224672.345,,white
,Reaction,canvas.Screen,3_91_0_2,2022-03-01T10:17:32.424Z,,,,0,V,223.3549999880779,response,,stim_detected,keydown(Space),224900.39999997616,224895.69999998808,224655.678,224658.09999996424,224672.345,224905.683,,white
,Trial,flow.Sequence,3_91_0,2022-03-01T10:17:32.424Z,,,,0,V,2006.723999988084,completion,,,,224900.80000001192,224895.69999998808,222872.309,222878.09999996424,222888.976,224905.683,,white
,Frame,canvas.Frame,3_91,2022-03-01T10:17:32.424Z,,,,0,V,2011.923999976163,,,,,224901.09999996424,224900.89999997616,222872.309,222876.19999998808,222888.976,224905.683,,white
,Fixation,canvas.Screen,3_92_0_0,2022-03-01T10:17:34.214Z,,,,1,A,1800.0360000000219,timeout,,,,226690.59999996424,226689.052,224889.016,224902.09999996424,224905.683,226705.719,,grey
,Stimulus,canvas.Screen,3_92_0_1,2022-03-01T10:17:34.314Z,,,,1,A,100.00199999997858,timeout,,,,226790.5,226789.054,226689.052,226690.89999997616,226705.719,226805.721,,grey
,Reaction,canvas.Screen,3_92_0_2,2022-03-01T10:17:34.522Z,,,,1,A,188.87899996424676,response,,stim_detected,keydown(Space),226998.89999997616,226994.59999996424,226789.054,226790.69999998808,226805.721,227005.725,,grey
,Trial,flow.Sequence,3_92_0,2022-03-01T10:17:34.522Z,,,,1,A,2088.916999964247,completion,,,,226999.19999998808,226994.59999996424,224889.016,224902,224905.683,227005.725,,grey
,Frame,canvas.Frame,3_92,2022-03-01T10:17:34.523Z,,,,1,A,2093.516999988089,,,,,226999.39999997616,226999.19999998808,224889.016,224901.19999998808,224905.683,227005.725,,grey
,Fixation,canvas.Screen,3_93_0_0,2022-03-01T10:17:36.864Z,,,,1,A,2350.0469999999914,timeout,,,,229340.89999997616,229339.105,226989.058,227000.39999997616,227005.725,229355.772,,grey
,Stimulus,canvas.Screen,3_93_0_1,2022-03-01T10:17:36.965Z,,,,1,A,100.00200000000768,timeout,,,,229442.09999996424,229439.107,229339.105,229341.09999996424,229355.772,229455.774,,grey
,Reaction,canvas.Screen,3_93_0_2,2022-03-01T10:17:37.156Z,,,,1,A,172.62599997615325,response,,stim_detected,keydown(Space),229632.69999998808,229628.39999997616,229439.107,229442.30000001192,229455.774,229639.111,,grey
,Trial,flow.Sequence,3_93_0,2022-03-01T10:17:37.156Z,,,,1,A,2622.6749999761523,completion,,,,229633.09999996424,229628.39999997616,226989.058,227000.30000001192,227005.725,229639.111,,grey
,Frame,canvas.Frame,3_93,2022-03-01T10:17:37.157Z,,,,1,A,2627.575000011915,,,,,229633.39999997616,229633.30000001192,226989.058,226999.5,227005.725,229639.111,,grey
,Fixation,canvas.Screen,3_94_0_0,2022-03-01T10:17:39.415Z,,,,1,VA,2266.7119999999995,timeout,,,,231891.69999998808,231889.156,229622.444,229634.39999997616,229639.111,231905.823,,white
,Stimulus,canvas.Screen,3_94_0_1,2022-03-01T10:17:39.514Z,,,,1,VA,100.00200000000768,timeout,,,,231990.80000001192,231989.158,231889.156,231892,231905.823,232005.825,,white
,Reaction,canvas.Screen,3_94_0_2,2022-03-01T10:17:39.719Z,,,,1,VA,185.37499998806743,response,,stim_detected,keydown(Space),232196.09999996424,232191.19999998808,231989.158,231991.09999996424,232005.825,232205.829,,white
,Trial,flow.Sequence,3_94_0,2022-03-01T10:17:39.720Z,,,,1,VA,2552.0889999880746,completion,,,,232196.30000001192,232191.19999998808,229622.444,229634.30000001192,229639.111,232205.829,,white
,Frame,canvas.Frame,3_94,2022-03-01T10:17:39.720Z,,,,1,VA,2557.2889999761537,,,,,232196.39999997616,232196.39999997616,229622.444,229633.5,229639.111,232205.829,,white
,Fixation,canvas.Screen,3_95_0_0,2022-03-01T10:17:42.182Z,,,,0,V,2466.716000000015,timeout,,,,234658.19999998808,234655.878,232189.162,232197.19999998808,232205.829,234672.545,,white
,Stimulus,canvas.Screen,3_95_0_1,2022-03-01T10:17:42.282Z,,,,0,V,100.00199999997858,timeout,,,,234758.19999998808,234755.88,234655.878,234658.30000001192,234672.545,234772.547,,white
,Reaction,canvas.Screen,3_95_0_2,2022-03-01T10:17:42.517Z,,,,0,V,216.55299996424583,response,,stim_detected,keydown(Space),234993.80000001192,234989.09999996424,234755.88,234758.30000001192,234772.547,235022.552,,white
,Trial,flow.Sequence,3_95_0,2022-03-01T10:17:42.518Z,,,,0,V,2783.2709999642393,completion,,,,234994.09999996424,234989.09999996424,232189.162,232197.19999998808,232205.829,235022.552,,white
,Frame,canvas.Frame,3_95,2022-03-01T10:17:42.518Z,,,,0,V,2788.370999988081,,,,,234994.30000001192,234994.19999998808,232189.162,232196.5,232205.829,235022.552,,white
,Fixation,canvas.Screen,3_96_0_0,2022-03-01T10:17:44.932Z,,,,1,VA,2400.04800000001,timeout,,,,237408.09999996424,237405.933,234989.218,234995.30000001192,235022.552,237422.6,,white
,Stimulus,canvas.Screen,3_96_0_1,2022-03-01T10:17:45.031Z,,,,1,VA,100.00200000000768,timeout,,,,237507.89999997616,237505.935,237405.933,237408.30000001192,237422.6,237522.602,,white
,Reaction,canvas.Screen,3_96_0_2,2022-03-01T10:17:45.240Z,,,,1,VA,181.29799997614464,response,,stim_detected,keydown(Space),237716.30000001192,237703.89999997616,237505.935,237508.19999998808,237522.602,237722.606,,white
,Trial,flow.Sequence,3_96_0,2022-03-01T10:17:45.240Z,,,,1,VA,2681.347999976162,completion,,,,237716.5,237703.89999997616,234989.218,234995.30000001192,235022.552,237722.606,,white
,Frame,canvas.Frame,3_96,2022-03-01T10:17:45.240Z,,,,1,VA,2694.047999964241,,,,,237716.69999998808,237716.59999996424,234989.218,234994.5,235022.552,237722.606,,white
,Fixation,canvas.Screen,3_97_0_0,2022-03-01T10:17:46.949Z,,,,0,V,1716.701000000001,timeout,,,,239425.09999996424,239422.64,237705.939,237717.39999997616,237722.606,239439.307,,white
,Stimulus,canvas.Screen,3_97_0_1,2022-03-01T10:17:47.049Z,,,,0,V,100.00200000000768,timeout,,,,239525,239522.642,239422.64,239425.30000001192,239439.307,239539.309,,white
,Reaction,canvas.Screen,3_97_0_2,2022-03-01T10:17:47.278Z,,,,0,V,210.59099997614976,response,,stim_detected,keydown(Space),239754.5,239749.89999997616,239522.642,239525.19999998808,239539.309,239755.98,,white
,Trial,flow.Sequence,3_97_0,2022-03-01T10:17:47.278Z,,,,0,V,2027.2939999761584,completion,,,,239754.69999998808,239749.89999997616,237705.939,237717.30000001192,237722.606,239755.98,,white
,Frame,canvas.Frame,3_97,2022-03-01T10:17:47.278Z,,,,0,V,2032.2939999761584,,,,,239755,239754.89999997616,237705.939,237716.69999998808,237722.606,239755.98,,white
,Fixation,canvas.Screen,3_98_0_0,2022-03-01T10:17:49.266Z,,,,1,A,2000.039999999979,timeout,,,,241741.89999997616,241739.353,239739.313,239757.80000001192,239755.98,241756.02,,grey
,Stimulus,canvas.Screen,3_98_0_1,2022-03-01T10:17:49.365Z,,,,1,A,100.00200000000768,timeout,,,,241841.39999997616,241839.355,241739.353,241742.59999996424,241756.02,241856.022,,grey
,Reaction,canvas.Screen,3_98_0_2,2022-03-01T10:17:49.629Z,,,,1,A,244.67799998808187,response,,stim_detected,keydown(Space),242105.19999998808,242100.69999998808,241839.355,241841.59999996424,241856.022,242122.694,,grey
,Trial,flow.Sequence,3_98_0,2022-03-01T10:17:49.629Z,,,,1,A,2344.7199999880686,completion,,,,242105.5,242100.69999998808,239739.313,239757.69999998808,239755.98,242122.694,,grey
,Frame,canvas.Frame,3_98,2022-03-01T10:17:49.629Z,,,,1,A,2349.6199999642267,,,,,242105.69999998808,242105.59999996424,239739.313,239755,239755.98,242122.694,,grey
,Fixation,canvas.Screen,3_99_0_0,2022-03-01T10:17:51.149Z,,,,0,V,1516.6970000000147,timeout,,,,243624.89999997616,243622.724,242106.027,242106.80000001192,242122.694,243639.391,,white
,Stimulus,canvas.Screen,3_99_0_1,2022-03-01T10:17:51.249Z,,,,0,V,100.00200000000768,timeout,,,,243725,243722.726,243622.724,243625.09999996424,243639.391,243739.393,,white
,Reaction,canvas.Screen,3_99_0_2,2022-03-01T10:17:51.482Z,,,,0,V,214.30699998806813,response,,stim_detected,keydown(Space),243958.30000001192,243953.69999998808,243722.726,243725.09999996424,243739.393,244006.065,,white
,Trial,flow.Sequence,3_99_0,2022-03-01T10:17:51.482Z,,,,0,V,1831.0059999880905,completion,,,,243958.59999996424,243953.69999998808,242106.027,242106.69999998808,242122.694,244006.065,,white
,Frame,canvas.Frame,3_99,2022-03-01T10:17:51.482Z,,,,0,V,1836.0059999880905,,,,,243958.80000001192,243958.69999998808,242106.027,242105.80000001192,242122.694,244006.065,,white
,Loop,flow.Loop,3,2022-03-01T10:17:51.483Z,,,,,,230507.24599998808,completion,,,,243959.09999996424,243958.69999998808,13434.787,13438.300000011921,13451.454,244006.065,,
,end,html.Page,4,2022-03-01T10:17:53.218Z,,,,,,1687.9349999999977,form submission,,,,245694.69999998808,245694,243989.398,243959.19999998808,244006.065,245706.099,,
,root,flow.Sequence,,2022-03-01T10:17:53.220Z,,,,,,244526.125,completion,,,,245696,245694,1067.873,1087,1167.875,245706.099,,