id,sender,sender_type,sender_id,timestamp,meta,,age,aud,condition,duration,ended_on,gender,response,response_action,time_commit,time_end,time_render,time_run,time_show,time_switch,url,vis
Richie Tenenbaum,Hello,html.Page,0,2022-03-01T09:33:57.687Z,"{""labjs_version"":""20.2.4"",""labjs_build"":{""flavor"":""development"",""commit"":""f5b4a49f956347addd546a832a3327688c2c0fef""},""location"":""https://labjs.felixhenninger.com/api/labjs_preview/index.html"",""userAgent"":""Mozilla/5.0 (Macintosh; Intel Mac OS X 10_15_7) AppleWebKit/537.36 (KHTML, like Gecko) Chrome/98.0.4758.80 Safari/537.36"",""platform"":""MacIntel"",""language"":""de-DE"",""locale"":""de"",""timeZone"":""Europe/Berlin"",""timezoneOffset"":-60,""screen_width"":1440,""screen_height"":900,""scroll_width"":1440,""scroll_height"":708,""window_innerWidth"":1440,""window_innerHeight"":756,""devicePixelRatio"":1}",,35,,,8156.306999988079,form submission,male,,,9416.300000011921,9415.699999988079,1226.059,1236.5,1259.393,9409.556,{},
,Instructions,html.Page,1,2022-03-01T09:33:58.370Z,,,,,,689.7440000119204,form submission,,,,10099.899999976158,10099.300000011921,9392.889,9416.800000011921,9409.556,10142.904,,
,Change Background,canvas.Screen,2,2022-03-01T09:34:01.399Z,,,,,,3000.0599999999995,timeout,,,,13128.5,13126.297,10092.903,10100.100000023842,10142.904,13142.964,,
,Fixation,canvas.Screen,3_0_0_0,2022-03-01T09:34:03.516Z,,,,0,V,2116.7090000000007,timeout,,,,15245,15243.006,13126.297,13130,13142.964,15259.673,,white
,Stimulus,canvas.Screen,3_0_0_1,2022-03-01T09:34:03.616Z,,,,0,V,100.00199999999859,timeout,,,,15345.399999976158,15343.008,15243.006,15245.300000011921,15259.673,15359.675,,white
,Reaction,canvas.Screen,3_0_0_2,2022-03-01T09:34:03.914Z,,,,0,V,264.5249999880798,response,,stim_detected,keydown(Space),15643.899999976158,15624.199999988079,15343.008,15345.699999988079,15359.675,15643.014,,white
,Trial,flow.Sequence,3_0_0,2022-03-01T09:34:03.915Z,,,,0,V,2481.235999988079,completion,,,,15644.100000023842,15624.199999988079,13126.297,13129.899999976158,13142.964,15643.014,,white
,Frame,canvas.Frame,3_0,2022-03-01T09:34:03.915Z,,,,0,V,2501.235999988079,,,,,15644.199999988079,15644.199999988079,13126.297,13128.899999976158,13142.964,15643.014,,white
,Fixation,canvas.Screen,3_1_0_0,2022-03-01T09:34:05.515Z,,,,1,A,1616.6990000000005,timeout,,,,17244,17243.046,15626.347,15645,15643.014,17259.713,,grey
,Stimulus,canvas.Screen,3_1_0_1,2022-03-01T09:34:05.640Z,,,,1,A,100.00200000000041,timeout,,,,17369.899999976158,17343.048,17243.046,17244.399999976158,17259.713,17359.715,,grey
,Reaction,canvas.Screen,3_1_0_2,2022-03-01T09:34:05.941Z,,,,1,A,306.4849999880789,response,,stim_detected,keydown(Space),17670.80000001192,17666.19999998808,17343.048,17370.100000023842,17359.715,17676.388,,grey
,Trial,flow.Sequence,3_1_0,2022-03-01T09:34:05.942Z,,,,1,A,2023.1859999880799,completion,,,,17671.399999976158,17666.19999998808,15626.347,15644.899999976158,15643.014,17676.388,,grey
,Frame,canvas.Frame,3_1,2022-03-01T09:34:05.942Z,,,,1,A,2028.5860000238426,,,,,17671.80000001192,17671.600000023842,15626.347,15644.399999976158,15643.014,17676.388,,grey
,Fixation,canvas.Screen,3_2_0_0,2022-03-01T09:34:07.433Z,,,,1,VA,1500.0300000000025,timeout,,,,19162.100000023842,19159.751,17659.721,17673.399999976158,17676.388,19176.418,,white
,Stimulus,canvas.Screen,3_2_0_1,2022-03-01T09:34:07.533Z,,,,1,VA,100.00199999999677,timeout,,,,19262.19999998808,19259.753,19159.751,19162.30000001192,19176.418,19276.42,,white
,Reaction,canvas.Screen,3_2_0_2,2022-03-01T09:34:07.778Z,,,,1,VA,226.6800000238436,response,,stim_detected,keydown(Space),19507.69999998808,19503.100000023842,19259.753,19262.399999976158,19276.42,19509.758,,white
,Trial,flow.Sequence,3_2_0,2022-03-01T09:34:07.779Z,,,,1,VA,1826.7120000238428,completion,,,,19508.100000023842,19503.100000023842,17659.721,17673.30000001192,17676.388,19509.758,,white
,Frame,canvas.Frame,3_2,2022-03-01T09:34:07.779Z,,,,1,VA,1831.81199998808,,,,,19508.30000001192,19508.19999998808,17659.721,17672,17676.388,19509.758,,white
,Fixation,canvas.Screen,3_3_0_0,2022-03-01T09:34:09.816Z,,,,1,A,2050.0409999999974,timeout,,,,21545.69999998808,21543.132,19493.091,19509.5,19509.758,21559.799,,grey
,Stimulus,canvas.Screen,3_3_0_1,2022-03-01T09:34:09.917Z,,,,1,A,100.00200000000041,timeout,,,,21646.100000023842,21643.134,21543.132,21545.899999976158,21559.799,21659.801,,grey
,Reaction,canvas.Screen,3_3_0_2,2022-03-01T09:34:10.279Z,,,,1,A,343.99900001192145,response,,stim_detected,keydown(Space),22008.19999998808,22003.80000001192,21643.134,21646.399999976158,21659.801,22009.808,,grey
,Trial,flow.Sequence,3_3_0,2022-03-01T09:34:10.279Z,,,,1,A,2494.0420000119193,completion,,,,22008.5,22003.80000001192,19493.091,19509.399999976158,19509.758,22009.808,,grey
,Frame,canvas.Frame,3_3,2022-03-01T09:34:10.279Z,,,,1,A,2498.8420000238402,,,,,22008.80000001192,22008.600000023842,19493.091,19508.399999976158,19509.758,22009.808,,grey
,Fixation,canvas.Screen,3_4_0_0,2022-03-01T09:34:12.116Z,,,,1,A,1850.0370000000003,timeout,,,,23845.5,23843.178,21993.141,22010.19999998808,22009.808,23859.845,,grey
,Stimulus,canvas.Screen,3_4_0_1,2022-03-01T09:34:12.217Z,,,,1,A,100.00200000000041,timeout,,,,23945.80000001192,23943.18,23843.178,23845.69999998808,23859.845,23959.847,,grey
,Reaction,canvas.Screen,3_4_0_2,2022-03-01T09:34:12.938Z,,,,1,A,702.7530000238403,response,,stim_detected,keydown(Space),24667.100000023842,24662.600000023842,23943.18,23946,23959.847,24676.528,,grey
,Trial,flow.Sequence,3_4_0,2022-03-01T09:34:12.938Z,,,,1,A,2652.792000023841,completion,,,,24667.5,24662.600000023842,21993.141,22010,22009.808,24676.528,,grey
,Frame,canvas.Frame,3_4,2022-03-01T09:34:12.939Z,,,,1,A,2657.891999988078,,,,,24668.19999998808,24667.69999998808,21993.141,22009.100000023842,22009.808,24676.528,,grey
,Fixation,canvas.Screen,3_5_0_0,2022-03-01T09:34:14.582Z,,,,0,V,1650.033000000003,timeout,,,,26311.399999976158,26309.894,24659.861,24669.399999976158,24676.528,26326.561,,white
,Stimulus,canvas.Screen,3_5_0_1,2022-03-01T09:34:14.684Z,,,,0,V,100.00199999999677,timeout,,,,26412.80000001192,26409.896,26309.894,26311.600000023842,26326.561,26426.563,,white
,Reaction,canvas.Screen,3_5_0_2,2022-03-01T09:34:15.295Z,,,,0,V,593.0370000238436,response,,stim_detected,keydown(Space),27024.30000001192,27019.600000023842,26409.896,26413.19999998808,26426.563,27026.575,,white
,Trial,flow.Sequence,3_5_0,2022-03-01T09:34:15.296Z,,,,0,V,2343.0720000238434,completion,,,,27024.69999998808,27019.600000023842,24659.861,24669.19999998808,24676.528,27026.575,,white
,Frame,canvas.Frame,3_5,2022-03-01T09:34:15.296Z,,,,0,V,2348.3719999761597,,,,,27025,27024.899999976158,24659.861,24668.30000001192,24676.528,27026.575,,white
,Fixation,canvas.Screen,3_6_0_0,2022-03-01T09:34:17.017Z,,,,1,VA,1733.3679999999986,timeout,,,,28745.69999998808,28743.276,27009.908,27026.19999998808,27026.575,28759.943,,white
,Stimulus,canvas.Screen,3_6_0_1,2022-03-01T09:34:17.116Z,,,,1,VA,100.00200000000041,timeout,,,,28845.399999976158,28843.278,28743.276,28745.899999976158,28759.943,28859.945,,white
,Reaction,canvas.Screen,3_6_0_2,2022-03-01T09:34:17.555Z,,,,1,VA,419.5550000000003,response,,stim_detected,keydown(Space),29284,29279.5,28843.278,28845.600000023842,28859.945,29293.287,,white
,Trial,flow.Sequence,3_6_0,2022-03-01T09:34:17.555Z,,,,1,VA,2252.9249999999993,completion,,,,29284.30000001192,29279.5,27009.908,27026.100000023842,27026.575,29293.287,,white
,Frame,canvas.Frame,3_6,2022-03-01T09:34:17.555Z,,,,1,VA,2257.72500001192,,,,,29284.399999976158,29284.30000001192,27009.908,27025.19999998808,27026.575,29293.287,,white
,Fixation,canvas.Screen,3_7_0_0,2022-03-01T09:34:19.183Z,,,,1,A,1633.3659999999982,timeout,,,,30912.5,30909.986,29276.62,29285.5,29293.287,30926.653,,grey
,Stimulus,canvas.Screen,3_7_0_1,2022-03-01T09:34:19.283Z,,,,1,A,100.00200000000041,timeout,,,,31012.30000001192,31009.988,30909.986,30912.69999998808,30926.653,31026.655,,grey
,Reaction,canvas.Screen,3_7_0_2,2022-03-01T09:34:19.830Z,,,,1,A,527.5449999880802,response,,stim_detected,keydown(Space),31559,31554.19999998808,31009.988,31012.600000023842,31026.655,31576.666,,grey
,Trial,flow.Sequence,3_7_0,2022-03-01T09:34:19.830Z,,,,1,A,2260.912999988079,completion,,,,31559.30000001192,31554.19999998808,29276.62,29285.399999976158,29293.287,31576.666,,grey
,Frame,canvas.Frame,3_7,2022-03-01T09:34:19.830Z,,,,1,A,2266.0130000119207,,,,,31559.5,31559.30000001192,29276.62,29284.600000023842,29293.287,31576.666,,grey
,Fixation,canvas.Screen,3_8_0_0,2022-03-01T09:34:22.016Z,,,,1,VA,2183.3769999999968,timeout,,,,33745.5,33743.376,31559.999,31560.600000023842,31576.666,33760.043,,white
,Stimulus,canvas.Screen,3_8_0_1,2022-03-01T09:34:22.117Z,,,,1,VA,100.00200000000041,timeout,,,,33846.10000002384,33843.378,33743.376,33745.60000002384,33760.043,33860.045,,white
,Reaction,canvas.Screen,3_8_0_2,2022-03-01T09:34:23.063Z,,,,1,VA,927.2550000119227,response,,stim_detected,keydown(Space),34791.89999997616,34787.30000001192,33843.378,33846.30000001192,33860.045,34793.397,,white
,Trial,flow.Sequence,3_8_0,2022-03-01T09:34:23.063Z,,,,1,VA,3210.63400001192,completion,,,,34792.19999998808,34787.30000001192,31559.999,31560.5,31576.666,34793.397,,white
,Frame,canvas.Frame,3_8,2022-03-01T09:34:23.063Z,,,,1,VA,3215.63400001192,,,,,34792.39999997616,34792.30000001192,31559.999,31559.600000023842,31576.666,34793.397,,white
,Fixation,canvas.Screen,3_9_0_0,2022-03-01T09:34:24.733Z,,,,0,V,1683.3670000000056,timeout,,,,36462.19999998808,36460.097,34776.73,34793.60000002384,34793.397,36476.764,,white
,Stimulus,canvas.Screen,3_9_0_1,2022-03-01T09:34:24.834Z,,,,0,V,100.00200000000041,timeout,,,,36562.69999998808,36560.099,36460.097,36462.5,36476.764,36576.766,,white
,Reaction,canvas.Screen,3_9_0_2,2022-03-01T09:34:25.147Z,,,,0,V,294.3340000238386,response,,stim_detected,keydown(Space),36875.60000002384,36871.10000002384,36560.099,36563,36576.766,36876.772,,white
,Trial,flow.Sequence,3_9_0,2022-03-01T09:34:25.147Z,,,,0,V,2077.7030000238447,completion,,,,36875.80000001192,36871.10000002384,34776.73,34793.5,34793.397,36876.772,,white
,Frame,canvas.Frame,3_9,2022-03-01T09:34:25.147Z,,,,0,V,2082.502999976161,,,,,36876,36875.89999997616,34776.73,34792.5,34793.397,36876.772,,white
,Fixation,canvas.Screen,3_10_0_0,2022-03-01T09:34:26.650Z,,,,1,A,1516.6970000000001,timeout,,,,38379.30000001192,38376.802,36860.105,36877.10000002384,36876.772,38393.469,,grey
,Stimulus,canvas.Screen,3_10_0_1,2022-03-01T09:34:26.750Z,,,,1,A,100.00200000000041,timeout,,,,38478.5,38476.804,38376.802,38379.5,38393.469,38493.471,,grey
,Reaction,canvas.Screen,3_10_0_2,2022-03-01T09:34:27.225Z,,,,1,A,455.4289999761604,response,,stim_detected,keydown(Space),38954,38948.89999997616,38476.804,38478.60000002384,38493.471,38960.147,,grey
,Trial,flow.Sequence,3_10_0,2022-03-01T09:34:27.226Z,,,,1,A,2072.127999976161,completion,,,,38954.39999997616,38948.89999997616,36860.105,36877,36876.772,38960.147,,grey
,Frame,canvas.Frame,3_10,2022-03-01T09:34:27.226Z,,,,1,A,2077.728000000003,,,,,38954.60000002384,38954.5,36860.105,36876.10000002384,36876.772,38960.147,,grey
,Fixation,canvas.Screen,3_11_0_0,2022-03-01T09:34:28.783Z,,,,1,VA,1566.698000000004,timeout,,,,40511.5,40510.178,38943.48,38955.69999998808,38960.147,40526.845,,white
,Stimulus,canvas.Screen,3_11_0_1,2022-03-01T09:34:28.883Z,,,,1,VA,100.00200000000041,timeout,,,,40612.10000002384,40610.18,40510.178,40511.69999998808,40526.845,40626.847,,white
,Reaction,canvas.Screen,3_11_0_2,2022-03-01T09:34:29.229Z,,,,1,VA,326.3529999880775,response,,stim_detected,keydown(Space),40957.5,40953.19999998808,40610.18,40612.30000001192,40626.847,40960.187,,white
,Trial,flow.Sequence,3_11_0,2022-03-01T09:34:29.229Z,,,,1,VA,1993.0529999880819,completion,,,,40957.69999998808,40953.19999998808,38943.48,38955.69999998808,38960.147,40960.187,,white
,Frame,canvas.Frame,3_11,2022-03-01T09:34:29.229Z,,,,1,VA,1997.6530000119237,,,,,40957.80000001192,40957.80000001192,38943.48,38954.80000001192,38960.147,40960.187,,white
,Fixation,canvas.Screen,3_12_0_0,2022-03-01T09:34:31.484Z,,,,1,VA,2266.7119999999995,timeout,,,,43212.39999997616,43210.232,40943.52,40958.69999998808,40960.187,43226.899,,white
,Stimulus,canvas.Screen,3_12_0_1,2022-03-01T09:34:31.583Z,,,,1,VA,100.00200000000041,timeout,,,,43311.89999997616,43310.234,43210.232,43212.5,43226.899,43326.901,,white
,Reaction,canvas.Screen,3_12_0_2,2022-03-01T09:34:32.501Z,,,,1,VA,899.599000000002,response,,stim_detected,keydown(Space),44229.60000002384,44226.5,43310.234,43311.89999997616,43326.901,44243.586,,white
,Trial,flow.Sequence,3_12_0,2022-03-01T09:34:32.501Z,,,,1,VA,3266.313000000002,completion,,,,44229.89999997616,44226.5,40943.52,40958.69999998808,40960.187,44243.586,,white
,Frame,canvas.Frame,3_12,2022-03-01T09:34:32.501Z,,,,1,VA,3269.71299997616,,,,,44229.89999997616,44229.89999997616,40943.52,40958,40960.187,44243.586,,white
,Fixation,canvas.Screen,3_13_0_0,2022-03-01T09:34:34.517Z,,,,0,V,2016.7069999999949,timeout,,,,46245.89999997616,46243.626,44226.919,44230.80000001192,44243.586,46260.293,,white
,Stimulus,canvas.Screen,3_13_0_1,2022-03-01T09:34:34.617Z,,,,0,V,100.00200000000041,timeout,,,,46345.69999998808,46343.628,46243.626,46246.19999998808,46260.293,46360.295,,white
,Reaction,canvas.Screen,3_13_0_2,2022-03-01T09:34:34.823Z,,,,0,V,187.20500000000175,response,,stim_detected,keydown(Space),46551.89999997616,46547.5,46343.628,46345.80000001192,46360.295,46560.299,,white
,Trial,flow.Sequence,3_13_0,2022-03-01T09:34:34.824Z,,,,0,V,2303.913999999997,completion,,,,46552.19999998808,46547.5,44226.919,44230.69999998808,44243.586,46560.299,,white
,Frame,canvas.Frame,3_13,2022-03-01T09:34:34.824Z,,,,0,V,2308.714000011918,,,,,46552.5,46552.30000001192,44226.919,44230,44243.586,46560.299,,white
,Fixation,canvas.Screen,3_14_0_0,2022-03-01T09:34:37.100Z,,,,1,VA,2283.379000000001,timeout,,,,48828.69999998808,48827.011,46543.632,46553.5,46560.299,48843.678,,white
,Stimulus,canvas.Screen,3_14_0_1,2022-03-01T09:34:37.200Z,,,,1,VA,100.00200000000041,timeout,,,,48928.69999998808,48927.013,48827.011,48828.89999997616,48843.678,48943.68,,white
,Reaction,canvas.Screen,3_14_0_2,2022-03-01T09:34:37.592Z,,,,1,VA,371.8199999999997,response,,stim_detected,keydown(Space),49320.10000002384,49315.5,48927.013,48928.89999997616,48943.68,49327.021,,white
,Trial,flow.Sequence,3_14_0,2022-03-01T09:34:37.592Z,,,,1,VA,2755.201000000001,completion,,,,49320.39999997616,49315.5,46543.632,46553.39999997616,46560.299,49327.021,,white
,Frame,canvas.Frame,3_14,2022-03-01T09:34:37.592Z,,,,1,VA,2760.201000000001,,,,,49320.60000002384,49320.5,46543.632,46552.60000002384,46560.299,49327.021,,white
,Fixation,canvas.Screen,3_15_0_0,2022-03-01T09:34:39.283Z,,,,0,V,1700.0339999999997,timeout,,,,51011.5,51010.388,49310.354,49321.80000001192,49327.021,51027.055,,white
,Stimulus,canvas.Screen,3_15_0_1,2022-03-01T09:34:39.384Z,,,,0,V,100.00200000000041,timeout,,,,51112.80000001192,51110.39,51010.388,51011.69999998808,51027.055,51127.057,,white
,Reaction,canvas.Screen,3_15_0_2,2022-03-01T09:34:39.906Z,,,,0,V,502.24300001192023,response,,stim_detected,keydown(Space),51634.19999998808,51629.30000001192,51110.39,51113.10000002384,51127.057,51643.734,,white
,Trial,flow.Sequence,3_15_0,2022-03-01T09:34:39.906Z,,,,0,V,2302.2790000119203,completion,,,,51634.5,51629.30000001192,49310.354,49321.69999998808,49327.021,51643.734,,white
,Frame,canvas.Frame,3_15,2022-03-01T09:34:39.906Z,,,,0,V,2307.579000023841,,,,,51634.69999998808,51634.60000002384,49310.354,49320.69999998808,49327.021,51643.734,,white
,Fixation,canvas.Screen,3_16_0_0,2022-03-01T09:34:41.435Z,,,,0,V,1533.3640000000014,timeout,,,,53163,53160.431,51627.067,51635.69999998808,51643.734,53177.098,,white
,Stimulus,canvas.Screen,3_16_0_1,2022-03-01T09:34:41.534Z,,,,0,V,100.00200000000041,timeout,,,,53262.69999998808,53260.433,53160.431,53163.19999998808,53177.098,53277.1,,white
,Reaction,canvas.Screen,3_16_0_2,2022-03-01T09:34:42.313Z,,,,0,V,759.9000000000015,response,,stim_detected,keydown(Space),54041.69999998808,54037,53260.433,53262.89999997616,53277.1,54043.782,,white
,Trial,flow.Sequence,3_16_0,2022-03-01T09:34:42.314Z,,,,0,V,2393.2660000000033,completion,,,,54041.89999997616,54037,51627.067,51635.69999998808,51643.734,54043.782,,white
,Frame,canvas.Frame,3_16,2022-03-01T09:34:42.314Z,,,,0,V,2398.2660000000033,,,,,54042.10000002384,54042,51627.067,51634.80000001192,51643.734,54043.782,,white
,Fixation,canvas.Screen,3_17_0_0,2022-03-01T09:34:43.950Z,,,,1,VA,1650.033000000003,timeout,,,,55678.60000002384,55677.148,54027.115,54043.10000002384,54043.782,55693.815,,white
,Stimulus,canvas.Screen,3_17_0_1,2022-03-01T09:34:44.050Z,,,,1,VA,100.00200000000041,timeout,,,,55778.69999998808,55777.15,55677.148,55678.80000001192,55693.815,55793.817,,white
,Reaction,canvas.Screen,3_17_0_2,2022-03-01T09:34:44.588Z,,,,1,VA,518.2830000238391,response,,stim_detected,keydown(Space),56316.60000002384,56312.10000002384,55777.15,55778.89999997616,55793.817,56327.161,,white
,Trial,flow.Sequence,3_17_0,2022-03-01T09:34:44.589Z,,,,1,VA,2268.3180000238426,completion,,,,56317,56312.10000002384,54027.115,54043.10000002384,54043.782,56327.161,,white
,Frame,canvas.Frame,3_17,2022-03-01T09:34:44.589Z,,,,1,VA,2273.3180000238426,,,,,56317.19999998808,56317.10000002384,54027.115,54042.19999998808,54043.782,56327.161,,white
,Fixation,canvas.Screen,3_18_0_0,2022-03-01T09:34:46.268Z,,,,0,V,1683.3669999999984,timeout,,,,57996.19999998808,57993.861,56310.494,56318.19999998808,56327.161,58010.528,,white
,Stimulus,canvas.Screen,3_18_0_1,2022-03-01T09:34:46.368Z,,,,0,V,100.00200000000041,timeout,,,,58096.19999998808,58093.863,57993.861,57996.39999997616,58010.528,58110.53,,white
,Reaction,canvas.Screen,3_18_0_2,2022-03-01T09:34:46.636Z,,,,0,V,248.47000000000116,response,,stim_detected,keydown(Space),58363.89999997616,58359,58093.863,58096.80000001192,58110.53,58393.869,,white
,Trial,flow.Sequence,3_18_0,2022-03-01T09:34:46.636Z,,,,0,V,2031.839,completion,,,,58364.30000001192,58359,56310.494,56318.10000002384,56327.161,58393.869,,white
,Frame,canvas.Frame,3_18,2022-03-01T09:34:46.636Z,,,,0,V,2037.238999976158,,,,,58364.39999997616,58364.39999997616,56310.494,56317.30000001192,56327.161,58393.869,,white
,Fixation,canvas.Screen,3_19_0_0,2022-03-01T09:34:48.802Z,,,,1,VA,2150.042999999998,timeout,,,,60530,60527.245,58360.535,58365.60000002384,58393.869,60543.912,,white
,Stimulus,canvas.Screen,3_19_0_1,2022-03-01T09:34:48.901Z,,,,1,VA,100.00200000000041,timeout,,,,60629.39999997616,60627.247,60527.245,60530.19999998808,60543.912,60643.914,,white
,Reaction,canvas.Screen,3_19_0_2,2022-03-01T09:34:49.423Z,,,,1,VA,502.78599998808204,response,,stim_detected,keydown(Space),61151.5,61146.69999998808,60627.247,60629.60000002384,60643.914,61160.591,,white
,Trial,flow.Sequence,3_19_0,2022-03-01T09:34:49.424Z,,,,1,VA,2752.8309999880803,completion,,,,61151.80000001192,61146.69999998808,58360.535,58365.5,58393.869,61160.591,,white
,Frame,canvas.Frame,3_19,2022-03-01T09:34:49.424Z,,,,1,VA,2758.0309999761594,,,,,61152.10000002384,61151.89999997616,58360.535,58364.60000002384,58393.869,61160.591,,white
,Fixation,canvas.Screen,3_20_0_0,2022-03-01T09:34:51.034Z,,,,1,VA,1616.6990000000005,timeout,,,,62762.19999998808,62760.623,61143.924,61153.19999998808,61160.591,62777.29,,white
,Stimulus,canvas.Screen,3_20_0_1,2022-03-01T09:34:51.135Z,,,,1,VA,100.00200000000041,timeout,,,,62863,62860.625,62760.623,62762.5,62777.29,62877.292,,white
,Reaction,canvas.Screen,3_20_0_2,2022-03-01T09:34:51.316Z,,,,1,VA,162.20799999999872,response,,stim_detected,keydown(Space),63043.89999997616,63039.5,62860.625,62863.80000001192,62877.292,63060.629,,white
,Trial,flow.Sequence,3_20_0,2022-03-01T09:34:51.316Z,,,,1,VA,1878.9089999999997,completion,,,,63044.30000001192,63039.5,61143.924,61153,61160.591,63060.629,,white
,Frame,canvas.Frame,3_20,2022-03-01T09:34:51.317Z,,,,1,VA,1883.9089999999997,,,,,63044.60000002384,63044.5,61143.924,61152.30000001192,61160.591,63060.629,,white
,Fixation,canvas.Screen,3_21_0_0,2022-03-01T09:34:53.734Z,,,,1,VA,2416.7149999999965,timeout,,,,65461.60000002384,65460.677,63043.962,63045.69999998808,63060.629,65477.344,,white
,Stimulus,canvas.Screen,3_21_0_1,2022-03-01T09:34:53.835Z,,,,1,VA,100.00200000000768,timeout,,,,65563.39999997616,65560.679,65460.677,65461.80000001192,65477.344,65577.346,,white
,Reaction,canvas.Screen,3_21_0_2,2022-03-01T09:34:54.016Z,,,,1,VA,162.35399998807407,response,,stim_detected,keydown(Space),65744,65739.69999998808,65560.679,65563.69999998808,65577.346,65760.683,,white
,Trial,flow.Sequence,3_21_0,2022-03-01T09:34:54.016Z,,,,1,VA,2679.0709999880783,completion,,,,65744.19999998808,65739.69999998808,63043.962,63045.69999998808,63060.629,65760.683,,white
,Frame,canvas.Frame,3_21,2022-03-01T09:34:54.016Z,,,,1,VA,2683.67100001192,,,,,65744.39999997616,65744.30000001192,63043.962,63044.80000001192,63060.629,65760.683,,white
,Fixation,canvas.Screen,3_22_0_0,2022-03-01T09:34:55.735Z,,,,1,A,1716.701000000001,timeout,,,,67462.80000001192,67460.717,65744.016,65745.39999997616,65760.683,67477.384,,grey
,Stimulus,canvas.Screen,3_22_0_1,2022-03-01T09:34:55.835Z,,,,1,A,100.00199999999313,timeout,,,,67562.89999997616,67560.719,67460.717,67462.89999997616,67477.384,67577.386,,grey
,Reaction,canvas.Screen,3_22_0_2,2022-03-01T09:34:56.122Z,,,,1,A,268.1140000000014,response,,stim_detected,keydown(Space),67849.89999997616,67845.5,67560.719,67563,67577.386,67860.725,,grey
,Trial,flow.Sequence,3_22_0,2022-03-01T09:34:56.122Z,,,,1,A,2084.8169999999955,completion,,,,67850.30000001192,67845.5,65744.016,65745.39999997616,65760.683,67860.725,,grey
,Frame,canvas.Frame,3_22,2022-03-01T09:34:56.122Z,,,,1,A,2089.7169999761536,,,,,67850.39999997616,67850.39999997616,65744.016,65744.60000002384,65760.683,67860.725,,grey
,Fixation,canvas.Screen,3_23_0_0,2022-03-01T09:34:58.035Z,,,,1,VA,1916.7049999999872,timeout,,,,69762.89999997616,69760.763,67844.058,67851.60000002384,67860.725,69777.43,,white
,Stimulus,canvas.Screen,3_23_0_1,2022-03-01T09:34:58.135Z,,,,1,VA,100.00200000000768,timeout,,,,69863,69860.765,69760.763,69763.10000002384,69777.43,69877.432,,white
,Reaction,canvas.Screen,3_23_0_2,2022-03-01T09:34:58.365Z,,,,1,VA,210.86800001192023,response,,stim_detected,keydown(Space),70092.80000001192,70088.30000001192,69860.765,69863.30000001192,69877.432,70094.103,,white
,Trial,flow.Sequence,3_23_0,2022-03-01T09:34:58.365Z,,,,1,VA,2227.575000011915,completion,,,,70093.19999998808,70088.30000001192,67844.058,67851.5,67860.725,70094.103,,white
,Frame,canvas.Frame,3_23,2022-03-01T09:34:58.366Z,,,,1,VA,2232.575000011915,,,,,70093.39999997616,70093.30000001192,67844.058,67850.5,67860.725,70094.103,,white
,Fixation,canvas.Screen,3_24_0_0,2022-03-01T09:35:00.734Z,,,,1,VA,2383.380999999994,timeout,,,,72462.30000001192,72460.817,70077.436,70094.39999997616,70094.103,72477.484,,white
,Stimulus,canvas.Screen,3_24_0_1,2022-03-01T09:35:00.835Z,,,,1,VA,116.66900000000896,timeout,,,,72562.60000002384,72560.819,72460.817,72462.39999997616,72477.484,72594.153,,white
,Reaction,canvas.Screen,3_24_0_2,2022-03-01T09:35:02.352Z,,,,1,VA,1500.0299999999988,timeout,,,,74079.60000002384,74077.516,72560.819,72562.80000001192,72594.153,74094.183,,white
,Trial,flow.Sequence,3_24_0,2022-03-01T09:35:02.352Z,,,,1,VA,3983.4130000000005,completion,,,,74080,74077.516,70077.436,70094.39999997616,70094.103,74094.183,,white
,Frame,canvas.Frame,3_24,2022-03-01T09:35:02.352Z,,,,1,VA,3985.997000023839,,,,,74080.19999998808,74080.10000002384,70077.436,70093.5,70094.103,74110.85,,white
,Fixation,canvas.Screen,3_25_0_0,2022-03-01T09:35:04.235Z,,,,1,A,1866.703999999998,timeout,,,,75962.60000002384,75960.887,74094.183,74081.19999998808,74110.85,75977.554,,grey
,Stimulus,canvas.Screen,3_25_0_1,2022-03-01T09:35:04.336Z,,,,1,A,100.00199999999313,timeout,,,,76063.30000001192,76060.889,75960.887,75962.69999998808,75977.554,76077.556,,grey
,Reaction,canvas.Screen,3_25_0_2,2022-03-01T09:35:05.835Z,,,,1,A,1500.0299999999988,timeout,,,,77563,77560.919,76060.889,76063.5,76077.556,77577.586,,grey
,Trial,flow.Sequence,3_25_0,2022-03-01T09:35:05.836Z,,,,1,A,3450.0689999999886,completion,,,,77563.30000001192,77560.919,74094.183,74081.19999998808,74110.85,77577.586,,grey
,Frame,canvas.Frame,3_25,2022-03-01T09:35:05.836Z,,,,1,A,3452.5499999761523,,,,,77563.5,77563.39999997616,74094.183,74080.39999997616,74110.85,77594.253,,grey
,Fixation,canvas.Screen,3_26_0_0,2022-03-01T09:35:08.236Z,,,,1,VA,2400.04800000001,timeout,,,,79963.60000002384,79960.967,77577.586,77564.39999997616,77594.253,79994.301,,white
,Stimulus,canvas.Screen,3_26_0_1,2022-03-01T09:35:08.351Z,,,,1,VA,100.00199999999313,timeout,,,,80078.69999998808,80077.636,79960.967,79963.80000001192,79994.301,80094.303,,white
,Reaction,canvas.Screen,3_26_0_2,2022-03-01T09:35:09.853Z,,,,1,VA,1500.0299999999988,timeout,,,,81580.10000002384,81577.666,80077.636,80078.89999997616,80094.303,81594.333,,white
,Trial,flow.Sequence,3_26_0,2022-03-01T09:35:09.853Z,,,,1,VA,3983.4130000000005,completion,,,,81580.39999997616,81577.666,77577.586,77564.39999997616,77594.253,81594.333,,white
,Frame,canvas.Frame,3_26,2022-03-01T09:35:09.853Z,,,,1,VA,3986.247000000003,,,,,81580.60000002384,81580.5,77577.586,77563.60000002384,77594.253,81611,,white
,Fixation,canvas.Screen,3_27_0_0,2022-03-01T09:35:12.353Z,,,,0,V,2483.3830000000016,timeout,,,,84080.39999997616,84077.716,81594.333,81581.60000002384,81611,84094.383,,white
,Stimulus,canvas.Screen,3_27_0_1,2022-03-01T09:35:12.452Z,,,,0,V,100.00199999999313,timeout,,,,84179.60000002384,84177.718,84077.716,84080.60000002384,84094.383,84194.385,,white
,Reaction,canvas.Screen,3_27_0_2,2022-03-01T09:35:13.951Z,,,,0,V,1500.0299999999988,timeout,,,,85678.89999997616,85677.748,84177.718,84179.89999997616,84194.385,85694.415,,white
,Trial,flow.Sequence,3_27_0,2022-03-01T09:35:13.952Z,,,,0,V,4066.748000000007,completion,,,,85679.19999998808,85677.748,81594.333,81581.5,81611,85694.415,,white
,Frame,canvas.Frame,3_27,2022-03-01T09:35:13.952Z,,,,0,V,4068.199999988079,,,,,85679.30000001192,85679.19999998808,81594.333,81580.69999998808,81611,85711.082,,white
,Fixation,canvas.Screen,3_28_0_0,2022-03-01T09:35:16.153Z,,,,1,VA,2183.3770000000077,timeout,,,,87880.30000001192,87877.792,85694.415,85680.30000001192,85711.082,87894.459,,white
,Stimulus,canvas.Screen,3_28_0_1,2022-03-01T09:35:16.252Z,,,,1,VA,100.00199999999313,timeout,,,,87978.89999997616,87977.794,87877.792,87880.5,87894.459,87994.461,,white
,Reaction,canvas.Screen,3_28_0_2,2022-03-01T09:35:16.936Z,,,,1,VA,663.7389999880834,response,,stim_detected,keydown(Space),88663.5,88658.19999998808,87977.794,87979.10000002384,87994.461,88677.808,,white
,Trial,flow.Sequence,3_28_0,2022-03-01T09:35:16.936Z,,,,1,VA,2947.117999988084,completion,,,,88663.89999997616,88658.19999998808,85694.415,85680.19999998808,85711.082,88677.808,,white
,Frame,canvas.Frame,3_28,2022-03-01T09:35:16.937Z,,,,1,VA,2952.8179999761633,,,,,88664.10000002384,88663.89999997616,85694.415,85679.5,85711.082,88677.808,,white
,Fixation,canvas.Screen,3_29_0_0,2022-03-01T09:35:18.968Z,,,,1,VA,2033.3739999999962,timeout,,,,90695.69999998808,90694.515,88661.141,88665.39999997616,88677.808,90711.182,,white
,Stimulus,canvas.Screen,3_29_0_1,2022-03-01T09:35:19.069Z,,,,1,VA,100.00199999999313,timeout,,,,90796.69999998808,90794.517,90694.515,90695.89999997616,90711.182,90811.184,,white
,Reaction,canvas.Screen,3_29_0_2,2022-03-01T09:35:19.793Z,,,,1,VA,704.1160000119271,response,,stim_detected,keydown(Space),91519.80000001192,91515.30000001192,90794.517,90796.89999997616,90811.184,91527.865,,white
,Trial,flow.Sequence,3_29_0,2022-03-01T09:35:19.793Z,,,,1,VA,2837.4920000119164,completion,,,,91520.10000002384,91515.30000001192,88661.141,88665.30000001192,88677.808,91527.865,,white
,Frame,canvas.Frame,3_29,2022-03-01T09:35:19.793Z,,,,1,VA,2842.3919999880745,,,,,91520.30000001192,91520.19999998808,88661.141,88664.10000002384,88677.808,91527.865,,white
,Fixation,canvas.Screen,3_30_0_0,2022-03-01T09:35:21.320Z,,,,1,A,1533.3640000000014,timeout,,,,93046.69999998808,93044.562,91511.198,91521.19999998808,91527.865,93061.229,,grey
,Stimulus,canvas.Screen,3_30_0_1,2022-03-01T09:35:21.420Z,,,,1,A,100.00199999999313,timeout,,,,93146.80000001192,93144.564,93044.562,93047,93061.229,93161.231,,grey
,Reaction,canvas.Screen,3_30_0_2,2022-03-01T09:35:21.704Z,,,,1,A,265.9689999880793,response,,stim_detected,keydown(Space),93431.60000002384,93427.19999998808,93144.564,93146.89999997616,93161.231,93444.57,,grey
,Trial,flow.Sequence,3_30_0,2022-03-01T09:35:21.705Z,,,,1,A,1899.3349999880738,completion,,,,93431.89999997616,93427.19999998808,91511.198,91521.19999998808,91527.865,93444.57,,grey
,Frame,canvas.Frame,3_30,2022-03-01T09:35:21.705Z,,,,1,A,1904.1349999999948,,,,,93432.10000002384,93432,91511.198,91520.39999997616,91527.865,93444.57,,grey
,Fixation,canvas.Screen,3_31_0_0,2022-03-01T09:35:23.553Z,,,,1,A,1850.0369999999966,timeout,,,,95280,95277.94,93427.903,93433.19999998808,93444.57,95294.607,,grey
,Stimulus,canvas.Screen,3_31_0_1,2022-03-01T09:35:23.652Z,,,,1,A,100.00199999999313,timeout,,,,95379,95377.942,95277.94,95280.19999998808,95294.607,95394.609,,grey
,Reaction,canvas.Screen,3_31_0_2,2022-03-01T09:35:25.154Z,,,,1,A,1500.0299999999988,timeout,,,,96880.60000002384,96877.972,95377.942,95379.10000002384,95394.609,96894.639,,grey
,Trial,flow.Sequence,3_31_0,2022-03-01T09:35:25.154Z,,,,1,A,3433.4019999999873,completion,,,,96880.89999997616,96877.972,93427.903,93433.10000002384,93444.57,96894.639,,grey
,Frame,canvas.Frame,3_31,2022-03-01T09:35:25.154Z,,,,1,A,3436.429999999993,,,,,96881.19999998808,96881,93427.903,93432.19999998808,93444.57,96911.306,,grey
,Fixation,canvas.Screen,3_32_0_0,2022-03-01T09:35:27.420Z,,,,1,A,2366.714000000007,timeout,,,,99146.69999998808,99144.684,96894.639,96882.30000001192,96911.306,99278.02,,grey
,Stimulus,canvas.Screen,3_32_0_1,2022-03-01T09:35:27.711Z,,,,1,A,266.6719999999914,timeout,,,,99437.60000002384,99428.023,99144.684,99164.5,99278.02,99544.692,,grey
,Reaction,canvas.Screen,3_32_0_2,2022-03-01T09:35:29.050Z,,,,1,A,1227.7079999761627,response,,stim_detected,keydown(Space),100777.39999997616,100772.39999997616,99428.023,99452.60000002384,99544.692,100894.719,,grey
,Trial,flow.Sequence,3_32_0,2022-03-01T09:35:29.068Z,,,,1,A,3861.0939999761613,completion,,,,100794.60000002384,100772.39999997616,96894.639,96882.19999998808,96911.306,100894.719,,grey
,Frame,canvas.Frame,3_32,2022-03-01T09:35:29.068Z,,,,1,A,3883.294000023845,,,,,100794.69999998808,100794.60000002384,96894.639,96881.19999998808,96911.306,100894.719,,grey
,Fixation,canvas.Screen,3_33_0_0,2022-03-01T09:35:31.337Z,,,,0,V,2266.7119999999995,timeout,,,,103064.19999998808,103061.429,100778.05,100879.80000001192,100894.719,103161.431,,white
,Stimulus,canvas.Screen,3_33_0_1,2022-03-01T09:35:31.623Z,,,,0,V,316.6730000000098,timeout,,,,103350.30000001192,103294.767,103061.429,103081.89999997616,103161.431,103478.104,,white
,Reaction,canvas.Screen,3_33_0_2,2022-03-01T09:35:32.594Z,,,,0,V,838.0959999880724,response,,stim_detected,keydown(Space),104321.10000002384,104316.19999998808,103294.767,103367.10000002384,103478.104,104444.79,,white
,Trial,flow.Sequence,3_33_0,2022-03-01T09:35:32.610Z,,,,0,V,3421.4809999880817,completion,,,,104337.30000001192,104316.19999998808,100778.05,100879.69999998808,100894.719,104444.79,,white
,Frame,canvas.Frame,3_33,2022-03-01T09:35:32.611Z,,,,0,V,3443.0810000119236,,,,,104338,104337.80000001192,100778.05,100794.69999998808,100894.719,104444.79,,white
,Fixation,canvas.Screen,3_34_0_0,2022-03-01T09:35:34.519Z,,,,1,A,1933.372000000003,timeout,,,,106246,106244.826,104328.121,104433.19999998808,104444.79,106378.162,,grey
,Stimulus,canvas.Screen,3_34_0_1,2022-03-01T09:35:34.842Z,,,,1,A,300.0060000000085,timeout,,,,106568.89999997616,106561.499,106244.826,106264,106378.162,106678.168,,grey
,Reaction,canvas.Screen,3_34_0_2,2022-03-01T09:35:36.436Z,,,,1,A,1666.699999999997,timeout,,,,108163,108161.531,106561.499,106582.10000002384,106678.168,108344.868,,grey
,Trial,flow.Sequence,3_34_0,2022-03-01T09:35:36.454Z,,,,1,A,3716.741000000009,completion,,,,108180.80000001192,108161.531,104328.121,104433.19999998808,104444.79,108344.868,,grey
,Frame,canvas.Frame,3_34,2022-03-01T09:35:36.454Z,,,,1,A,3736.0100000119273,,,,,108180.89999997616,108180.80000001192,104328.121,104338,104444.79,108644.874,,grey
,Fixation,canvas.Screen,3_35_0_0,2022-03-01T09:35:39.003Z,,,,1,A,2200.044000000009,timeout,,,,110729.80000001192,110728.249,108344.868,108307.69999998808,108644.874,110844.918,,grey
,Stimulus,canvas.Screen,3_35_0_1,2022-03-01T09:35:39.251Z,,,,1,A,283.33899999999267,timeout,,,,110977.80000001192,110961.587,110728.249,110747.89999997616,110844.918,111128.257,,grey
,Reaction,canvas.Screen,3_35_0_2,2022-03-01T09:35:40.887Z,,,,1,A,1600.0320000000065,timeout,,,,112613.69999998808,112611.62,110961.587,110991.30000001192,111128.257,112728.289,,grey
,Trial,flow.Sequence,3_35_0,2022-03-01T09:35:40.905Z,,,,1,A,3966.745999999999,completion,,,,112631.5,112611.62,108344.868,108307.69999998808,108644.874,112728.289,,grey
,Frame,canvas.Frame,3_35,2022-03-01T09:35:40.905Z,,,,1,A,3986.825999988083,,,,,112631.69999998808,112631.69999998808,108344.868,108181,108644.874,113028.295,,grey
,Fixation,canvas.Screen,3_36_0_0,2022-03-01T09:35:43.604Z,,,,1,VA,2450.048999999999,timeout,,,,115330.39999997616,115328.341,112728.289,112721.89999997616,113028.295,115478.344,,white
,Stimulus,canvas.Screen,3_36_0_1,2022-03-01T09:35:43.908Z,,,,1,VA,316.6730000000098,timeout,,,,115634.19999998808,115628.347,115328.341,115349.19999998808,115478.344,115795.017,,white
,Reaction,canvas.Screen,3_36_0_2,2022-03-01T09:35:45.554Z,,,,1,VA,1633.3659999999945,timeout,,,,117280.69999998808,117278.38,115628.347,115700.5,115795.017,117428.383,,white
,Trial,flow.Sequence,3_36_0,2022-03-01T09:35:45.573Z,,,,1,VA,4250.085000000006,completion,,,,117299.10000002384,117278.38,112728.289,112721.80000001192,113028.295,117428.383,,white
,Frame,canvas.Frame,3_36,2022-03-01T09:35:45.573Z,,,,1,VA,4270.805000023844,,,,,117299.19999998808,117299.10000002384,112728.289,112631.80000001192,113028.295,117645.054,,white
,Fixation,canvas.Screen,3_37_0_0,2022-03-01T09:35:48.337Z,,,,1,VA,2533.383999999991,timeout,,,,120063.19999998808,120061.769,117428.383,117415.69999998808,117645.054,120178.438,,white
,Stimulus,canvas.Screen,3_37_0_1,2022-03-01T09:35:48.601Z,,,,1,VA,300.0060000000085,timeout,,,,120327.80000001192,120311.774,120061.769,120081.5,120178.438,120478.444,,white
,Reaction,canvas.Screen,3_37_0_2,2022-03-01T09:35:50.238Z,,,,1,VA,1600.031999999992,timeout,,,,121964.30000001192,121961.807,120311.774,120357.69999998808,120478.444,122078.476,,white
,Trial,flow.Sequence,3_37_0,2022-03-01T09:35:50.258Z,,,,1,VA,4316.752999999997,completion,,,,121983.89999997616,121961.807,117428.383,117415.69999998808,117645.054,122078.476,,white
,Frame,canvas.Frame,3_37,2022-03-01T09:35:50.258Z,,,,1,VA,4338.945999999996,,,,,121984,121984,117428.383,117299.30000001192,117645.054,122261.813,,white
,Fixation,canvas.Screen,3_38_0_0,2022-03-01T09:35:52.354Z,,,,1,A,1933.372000000003,timeout,,,,124080.19999998808,124078.516,122078.476,122077.5,122261.813,124195.185,,grey
,Stimulus,canvas.Screen,3_38_0_1,2022-03-01T09:35:52.642Z,,,,1,A,350.0069999999978,timeout,,,,124368.60000002384,124345.188,124078.516,124098.89999997616,124195.185,124545.192,,grey
,Reaction,canvas.Screen,3_38_0_2,2022-03-01T09:35:53.925Z,,,,1,A,1100.3080000000045,response,,stim_detected,keydown(Space),125651.39999997616,125645.5,124345.188,124438.19999998808,124545.192,125778.55,,grey
,Trial,flow.Sequence,3_38_0,2022-03-01T09:35:53.943Z,,,,1,A,3383.6870000000054,completion,,,,125669.30000001192,125645.5,122078.476,122077.5,122261.813,125778.55,,grey
,Frame,canvas.Frame,3_38,2022-03-01T09:35:53.943Z,,,,1,A,3407.5869999761635,,,,,125669.39999997616,125669.39999997616,122078.476,121984.10000002384,122261.813,125778.55,,grey
,Fixation,canvas.Screen,3_39_0_0,2022-03-01T09:35:55.905Z,,,,1,A,1983.3729999999923,timeout,,,,127631.30000001192,127628.587,125661.881,125767.80000001192,125778.55,127761.923,,grey
,Stimulus,canvas.Screen,3_39_0_1,2022-03-01T09:35:56.186Z,,,,1,A,300.0060000000085,timeout,,,,127912.10000002384,127895.259,127628.587,127650.60000002384,127761.923,128061.929,,grey
,Reaction,canvas.Screen,3_39_0_2,2022-03-01T09:35:57.355Z,,,,1,A,1013.2709999880753,response,,stim_detected,keydown(Space),129081,129075.19999998808,127895.259,127927.5,128061.929,129211.952,,grey
,Trial,flow.Sequence,3_39_0,2022-03-01T09:35:57.372Z,,,,1,A,3296.649999988076,completion,,,,129097.89999997616,129075.19999998808,125661.881,125767.80000001192,125778.55,129211.952,,grey
,Frame,canvas.Frame,3_39,2022-03-01T09:35:57.372Z,,,,1,A,3319.449999999997,,,,,129098,129098,125661.881,125669.5,125778.55,129211.952,,grey
,Fixation,canvas.Screen,3_40_0_0,2022-03-01T09:35:59.172Z,,,,1,A,1816.702999999994,timeout,,,,130897.60000002384,130895.319,129078.616,129199.69999998808,129211.952,131028.655,,grey
,Stimulus,canvas.Screen,3_40_0_1,2022-03-01T09:35:59.499Z,,,,1,A,383.3410000000149,timeout,,,,131225,131211.992,130895.319,130917.10000002384,131028.655,131411.996,,grey
,Reaction,canvas.Screen,3_40_0_2,2022-03-01T09:36:00.576Z,,,,1,A,884.8040000119072,response,,stim_detected,keydown(Space),132301.69999998808,132296.80000001192,131211.992,131295.30000001192,131411.996,132428.683,,grey
,Trial,flow.Sequence,3_40_0,2022-03-01T09:36:00.594Z,,,,1,A,3084.848000011916,completion,,,,132319.80000001192,132296.80000001192,129078.616,129199.60000002384,129211.952,132428.683,,grey
,Frame,canvas.Frame,3_40,2022-03-01T09:36:00.594Z,,,,1,A,3107.9479999761534,,,,,132319.89999997616,132319.89999997616,129078.616,129098,129211.952,132428.683,,grey
,Fixation,canvas.Screen,3_41_0_0,2022-03-01T09:36:02.705Z,,,,1,A,2133.3760000000184,timeout,,,,134430.60000002384,134428.723,132312.014,132422.60000002384,132428.683,134562.059,,grey
,Stimulus,canvas.Screen,3_41_0_1,2022-03-01T09:36:03.029Z,,,,1,A,366.67399999999907,timeout,,,,134755.39999997616,134745.396,134428.723,134450.69999998808,134562.059,134928.733,,grey
,Reaction,canvas.Screen,3_41_0_2,2022-03-01T09:36:04.688Z,,,,1,A,1616.6989999999932,timeout,,,,136414.10000002384,136412.096,134745.396,134780.30000001192,134928.733,136545.432,,grey
,Trial,flow.Sequence,3_41_0,2022-03-01T09:36:04.708Z,,,,1,A,3983.4130000000005,completion,,,,136434,136412.096,132312.014,132422.60000002384,132428.683,136545.432,,grey
,Frame,canvas.Frame,3_41,2022-03-01T09:36:04.708Z,,,,1,A,4005.417000023852,,,,,136434.10000002384,136434.10000002384,132312.014,132320.10000002384,132428.683,136928.773,,grey
,Fixation,canvas.Screen,3_42_0_0,2022-03-01T09:36:07.087Z,,,,1,VA,2050.0410000000265,timeout,,,,138813.30000001192,138812.144,136545.432,136539.39999997616,136928.773,138978.814,,white
,Stimulus,canvas.Screen,3_42_0_1,2022-03-01T09:36:07.426Z,,,,1,VA,350.00699999998324,timeout,,,,139151.39999997616,139128.817,138812.144,138833.10000002384,138978.814,139328.821,,white
,Reaction,canvas.Screen,3_42_0_2,2022-03-01T09:36:09.088Z,,,,1,VA,1650.0329999999958,timeout,,,,140813.39999997616,140812.184,139128.817,139221.30000001192,139328.821,140978.854,,white
,Trial,flow.Sequence,3_42_0,2022-03-01T09:36:09.107Z,,,,1,VA,3883.411000000022,completion,,,,140833.19999998808,140812.184,136545.432,136539.39999997616,136928.773,140978.854,,white
,Frame,canvas.Frame,3_42,2022-03-01T09:36:09.108Z,,,,1,VA,3904.4269999880926,,,,,140833.30000001192,140833.19999998808,136545.432,136434.19999998808,136928.773,141328.861,,white
,Fixation,canvas.Screen,3_43_0_0,2022-03-01T09:36:11.089Z,,,,0,V,1633.366000000009,timeout,,,,142814.39999997616,142812.224,140978.854,140968.19999998808,141328.861,142962.227,,white
,Stimulus,canvas.Screen,3_43_0_1,2022-03-01T09:36:11.385Z,,,,0,V,283.3389999999781,timeout,,,,143110.89999997616,143095.563,142812.224,142834.80000001192,142962.227,143245.566,,white
,Reaction,canvas.Screen,3_43_0_2,2022-03-01T09:36:13.005Z,,,,0,V,1633.366000000009,timeout,,,,144730.69999998808,144728.929,143095.563,143127.5,143245.566,144878.932,,white
,Trial,flow.Sequence,3_43_0,2022-03-01T09:36:13.026Z,,,,0,V,3400.0679999999993,completion,,,,144751.19999998808,144728.929,140978.854,140968.10000002384,141328.861,144878.932,,white
,Frame,canvas.Frame,3_43,2022-03-01T09:36:13.026Z,,,,0,V,3422.4390000119165,,,,,144751.39999997616,144751.30000001192,140978.854,140833.39999997616,141328.861,145028.935,,white
,Fixation,canvas.Screen,3_44_0_0,2022-03-01T09:36:15.072Z,,,,0,V,1916.7050000000163,timeout,,,,146797.30000001192,146795.637,144878.932,144865.19999998808,145028.935,146945.64,,white
,Stimulus,canvas.Screen,3_44_0_1,2022-03-01T09:36:15.376Z,,,,0,V,333.3399999999965,timeout,,,,147101.5,147095.643,146795.637,146818.10000002384,146945.64,147278.98,,white
,Reaction,canvas.Screen,3_44_0_2,2022-03-01T09:36:17.039Z,,,,0,V,1633.36599999998,timeout,,,,148764.30000001192,148762.343,147095.643,147141.69999998808,147278.98,148912.346,,white
,Trial,flow.Sequence,3_44_0,2022-03-01T09:36:17.060Z,,,,0,V,3733.407999999996,completion,,,,148785.5,148762.343,144878.932,144865.10000002384,145028.935,148912.346,,white
,Frame,canvas.Frame,3_44,2022-03-01T09:36:17.060Z,,,,0,V,3756.5650000000023,,,,,148785.60000002384,148785.5,144878.932,144751.39999997616,145028.935,149112.35,,white
,Fixation,canvas.Screen,3_45_0_0,2022-03-01T09:36:19.638Z,,,,1,VA,2383.380999999994,timeout,,,,151363.69999998808,151362.395,148912.346,148899.80000001192,149112.35,151495.731,,white
,Stimulus,canvas.Screen,3_45_0_1,2022-03-01T09:36:20.005Z,,,,1,VA,383.3409999999858,timeout,,,,151730.10000002384,151679.068,151362.395,151384.39999997616,151495.731,151879.072,,white
,Reaction,canvas.Screen,3_45_0_2,2022-03-01T09:36:21.638Z,,,,1,VA,1666.7000000000116,timeout,,,,153363.60000002384,153362.435,151679.068,151750.10000002384,151879.072,153545.772,,white
,Trial,flow.Sequence,3_45_0,2022-03-01T09:36:21.662Z,,,,1,VA,4250.084999999992,completion,,,,153387,153362.435,148912.346,148899.69999998808,149112.35,153545.772,,white
,Frame,canvas.Frame,3_45,2022-03-01T09:36:21.662Z,,,,1,VA,4274.750000023836,,,,,153387.19999998808,153387.10000002384,148912.346,148785.69999998808,149112.35,153779.11,,white
,Fixation,canvas.Screen,3_46_0_0,2022-03-01T09:36:24.038Z,,,,1,A,2250.045000000013,timeout,,,,155763.60000002384,155762.483,153545.772,153534.80000001192,153779.11,156029.155,,grey
,Stimulus,canvas.Screen,3_46_0_1,2022-03-01T09:36:24.630Z,,,,1,A,483.3429999999935,timeout,,,,156354.89999997616,156295.827,155762.483,155784.19999998808,156029.155,156512.498,,grey
,Reaction,canvas.Screen,3_46_0_2,2022-03-01T09:36:26.273Z,,,,1,A,1633.366000000009,timeout,,,,157998,157995.861,156295.827,156377.39999997616,156512.498,158145.864,,grey
,Trial,flow.Sequence,3_46_0,2022-03-01T09:36:26.294Z,,,,1,A,4216.751000000018,completion,,,,158019.39999997616,157995.861,153545.772,153534.80000001192,153779.11,158145.864,,grey
,Frame,canvas.Frame,3_46,2022-03-01T09:36:26.294Z,,,,1,A,4240.390000000014,,,,,158019.5,158019.5,153545.772,153387.39999997616,153779.11,158545.872,,grey
,Fixation,canvas.Screen,3_47_0_0,2022-03-01T09:36:28.839Z,,,,0,V,2166.709999999992,timeout,,,,160563.89999997616,160562.579,158145.864,158139.39999997616,158545.872,160712.582,,white
,Stimulus,canvas.Screen,3_47_0_1,2022-03-01T09:36:29.162Z,,,,0,V,366.67399999999907,timeout,,,,160887.30000001192,160879.252,160562.579,160585.39999997616,160712.582,161079.256,,white
,Reaction,canvas.Screen,3_47_0_2,2022-03-01T09:36:30.840Z,,,,0,V,1633.366000000009,timeout,,,,162565.19999998808,162562.619,160879.252,160915.89999997616,161079.256,162712.622,,white
,Trial,flow.Sequence,3_47_0,2022-03-01T09:36:30.862Z,,,,0,V,4016.747000000003,completion,,,,162587.10000002384,162562.619,158145.864,158139.30000001192,158545.872,162712.622,,white
,Frame,canvas.Frame,3_47,2022-03-01T09:36:30.862Z,,,,0,V,4041.327999988076,,,,,162587.30000001192,162587.19999998808,158145.864,158019.60000002384,158545.872,163112.63,,white
,Fixation,canvas.Screen,3_48_0_0,2022-03-01T09:36:33.740Z,,,,1,VA,2516.717000000004,timeout,,,,165464.80000001192,165462.677,162712.622,162707,163112.63,165629.347,,white
,Stimulus,canvas.Screen,3_48_0_1,2022-03-01T09:36:34.088Z,,,,1,VA,383.3409999999858,timeout,,,,165813.5,165796.017,165462.677,165483,165629.347,166012.688,,white
,Reaction,canvas.Screen,3_48_0_2,2022-03-01T09:36:35.773Z,,,,1,VA,1650.0329999999958,timeout,,,,167498.5,167496.051,165796.017,165866.30000001192,166012.688,167662.721,,white
,Trial,flow.Sequence,3_48_0,2022-03-01T09:36:35.796Z,,,,1,VA,4383.421000000002,completion,,,,167521,167496.051,162712.622,162707,163112.63,167662.721,,white
,Frame,canvas.Frame,3_48,2022-03-01T09:36:35.796Z,,,,1,VA,4408.369999999995,,,,,167521.19999998808,167521,162712.622,162587.39999997616,163112.63,168079.396,,white
,Fixation,canvas.Screen,3_49_0_0,2022-03-01T09:36:38.141Z,,,,1,VA,1950.0389999999898,timeout,,,,169865.5,169862.765,167662.721,167659.69999998808,168079.396,170029.435,,white
,Stimulus,canvas.Screen,3_49_0_1,2022-03-01T09:36:38.535Z,,,,1,VA,400.00800000000163,timeout,,,,170260,170196.105,169862.765,169889.60000002384,170029.435,170429.443,,white
,Reaction,canvas.Screen,3_49_0_2,2022-03-01T09:36:40.190Z,,,,1,VA,1650.0329999999958,timeout,,,,171915.10000002384,171912.806,170196.105,170283.19999998808,170429.443,172079.476,,white
,Trial,flow.Sequence,3_49_0,2022-03-01T09:36:40.214Z,,,,1,VA,3833.4100000000035,completion,,,,171939.19999998808,171912.806,167662.721,167659.69999998808,168079.396,172079.476,,white
,Frame,canvas.Frame,3_49,2022-03-01T09:36:40.215Z,,,,1,VA,3859.803999988071,,,,,171939.30000001192,171939.19999998808,167662.721,167521.19999998808,168079.396,172379.482,,white
,Fixation,canvas.Screen,3_50_0_0,2022-03-01T09:36:42.257Z,,,,1,VA,1766.7020000000193,timeout,,,,173982.10000002384,173979.514,172079.476,172071.89999997616,172379.482,174146.184,,white
,Stimulus,canvas.Screen,3_50_0_1,2022-03-01T09:36:42.641Z,,,,1,VA,433.3420000000042,timeout,,,,174365.30000001192,174346.188,173979.514,174004.69999998808,174146.184,174579.526,,white
,Reaction,canvas.Screen,3_50_0_2,2022-03-01T09:36:42.861Z,,,,1,VA,117.01199998808443,response,,stim_detected,keydown(Space),174586.19999998808,174463.19999998808,174346.188,174439.10000002384,,174896.199,,white
,Trial,flow.Sequence,3_50_0,2022-03-01T09:36:42.882Z,,,,1,VA,2083.71799998809,completion,,,,174606.60000002384,174463.19999998808,172079.476,172071.89999997616,172379.482,174896.199,,white
,Frame,canvas.Frame,3_50,2022-03-01T09:36:42.882Z,,,,1,VA,2227.21799998809,,,,,174606.80000001192,174606.69999998808,172079.476,171939.5,172379.482,174896.199,,white
,Fixation,canvas.Screen,3_51_0_0,2022-03-01T09:36:44.990Z,,,,0,V,1983.3729999999923,timeout,,,,176715,176712.902,174579.526,174736.80000001192,174896.199,176879.572,,white
,Stimulus,canvas.Screen,3_51_0_1,2022-03-01T09:36:45.389Z,,,,0,V,466.67600000000675,timeout,,,,177114.10000002384,177096.243,176712.902,176737.89999997616,176879.572,177346.248,,white
,Reaction,canvas.Screen,3_51_0_2,2022-03-01T09:36:45.626Z,,,,0,V,192.75700000001234,response,,stim_detected,keydown(Space),177350.60000002384,177289,177096.243,177187.60000002384,,177662.921,,white
,Trial,flow.Sequence,3_51_0,2022-03-01T09:36:45.649Z,,,,0,V,2392.8010000000068,completion,,,,177373.69999998808,177289,174579.526,174736.80000001192,174896.199,177662.921,,white
,Frame,canvas.Frame,3_51,2022-03-01T09:36:45.649Z,,,,0,V,2477.6010000119277,,,,,177373.89999997616,177373.80000001192,174579.526,174606.80000001192,174896.199,177662.921,,white
,Fixation,canvas.Screen,3_52_0_0,2022-03-01T09:36:47.624Z,,,,1,VA,1850.0370000000112,timeout,,,,179348.39999997616,179346.288,177346.248,177505.89999997616,177662.921,179512.958,,white
,Stimulus,canvas.Screen,3_52_0_1,2022-03-01T09:36:48.010Z,,,,1,VA,450.0089999999909,timeout,,,,179734.10000002384,179729.629,179346.288,179371.60000002384,179512.958,179962.967,,white
,Reaction,canvas.Screen,3_52_0_2,2022-03-01T09:36:48.438Z,,,,1,VA,156.83300001191674,response,,stim_detected,keydown(Space),180162.89999997616,180119.80000001192,179729.629,179815.89999997616,179962.967,180362.975,,white
,Trial,flow.Sequence,3_52_0,2022-03-01T09:36:48.459Z,,,,1,VA,2456.879000011919,completion,,,,180183.30000001192,180119.80000001192,177346.248,177505.80000001192,177662.921,180362.975,,white
,Frame,canvas.Frame,3_52,2022-03-01T09:36:48.459Z,,,,1,VA,2520.478999976156,,,,,180183.5,180183.39999997616,177346.248,177374,177662.921,180362.975,,white
,Fixation,canvas.Screen,3_53_0_0,2022-03-01T09:36:51.107Z,,,,1,A,2633.3859999999986,timeout,,,,182831.89999997616,182829.691,180179.638,180349.19999998808,180362.975,182996.361,,grey
,Stimulus,canvas.Screen,3_53_0_1,2022-03-01T09:36:51.526Z,,,,1,A,433.3420000000042,timeout,,,,183250.30000001192,183196.365,182829.691,182855.10000002384,182996.361,183429.703,,grey
,Reaction,canvas.Screen,3_53_0_2,2022-03-01T09:36:53.191Z,,,,1,A,1650.0329999999958,timeout,,,,184915.39999997616,184913.066,183196.365,183274.10000002384,183429.703,185079.736,,grey
,Trial,flow.Sequence,3_53_0,2022-03-01T09:36:53.215Z,,,,1,A,4550.090999999986,completion,,,,184939.19999998808,184913.066,180179.638,180349.19999998808,180362.975,185079.736,,grey
,Frame,canvas.Frame,3_53,2022-03-01T09:36:53.215Z,,,,1,A,4576.325000011915,,,,,184939.30000001192,184939.30000001192,180179.638,180183.5,180362.975,185513.078,,grey
,Fixation,canvas.Screen,3_54_0_0,2022-03-01T09:36:55.958Z,,,,1,VA,2333.3800000000047,timeout,,,,187682.60000002384,187679.788,185079.736,185070.89999997616,185513.078,187846.458,,white
,Stimulus,canvas.Screen,3_54_0_1,2022-03-01T09:36:56.315Z,,,,1,VA,400.0079999999725,timeout,,,,188039.30000001192,188029.795,187679.788,187706.5,187846.458,188246.466,,white
,Reaction,canvas.Screen,3_54_0_2,2022-03-01T09:36:56.987Z,,,,1,VA,459.13400002385606,response,,stim_detected,keydown(Space),188710.89999997616,188705.60000002384,188029.795,188078.89999997616,188246.466,188879.812,,white
,Trial,flow.Sequence,3_54_0,2022-03-01T09:36:57.009Z,,,,1,VA,3192.5220000238332,completion,,,,188733.5,188705.60000002384,185079.736,185070.89999997616,185513.078,188879.812,,white
,Frame,canvas.Frame,3_54,2022-03-01T09:36:57.009Z,,,,1,VA,3220.4219999999914,,,,,188733.60000002384,188733.5,185079.736,184939.39999997616,185513.078,188879.812,,white
,Fixation,canvas.Screen,3_55_0_0,2022-03-01T09:36:58.758Z,,,,0,V,1783.369000000006,timeout,,,,190482.19999998808,190479.844,188713.142,188870.39999997616,188879.812,190663.181,,white
,Stimulus,canvas.Screen,3_55_0_1,2022-03-01T09:36:59.124Z,,,,0,V,400.00800000000163,timeout,,,,190848.39999997616,190829.851,190479.844,190506.30000001192,190663.181,191063.189,,white
,Reaction,canvas.Screen,3_55_0_2,2022-03-01T09:37:00.825Z,,,,0,V,1666.6999999999825,timeout,,,,192549,192546.552,190829.851,190883.80000001192,191063.189,192729.889,,white
,Trial,flow.Sequence,3_55_0,2022-03-01T09:37:00.849Z,,,,0,V,3666.7399999999907,completion,,,,192573.19999998808,192546.552,188713.142,188870.30000001192,188879.812,192729.889,,white
,Frame,canvas.Frame,3_55,2022-03-01T09:37:00.849Z,,,,0,V,3693.3879999880737,,,,,192573.30000001192,192573.19999998808,188713.142,188733.69999998808,188879.812,193163.231,,white
,Fixation,canvas.Screen,3_56_0_0,2022-03-01T09:37:03.275Z,,,,1,A,2016.7069999999949,timeout,,,,194998.69999998808,194996.601,192729.889,192711,193163.231,195179.938,,grey
,Stimulus,canvas.Screen,3_56_0_1,2022-03-01T09:37:03.647Z,,,,1,A,400.00800000000163,timeout,,,,195371.30000001192,195363.275,194996.601,195023.5,195179.938,195579.946,,grey
,Reaction,canvas.Screen,3_56_0_2,2022-03-01T09:37:05.342Z,,,,1,A,1666.7000000000116,timeout,,,,197065.60000002384,197063.309,195363.275,195404,195579.946,197246.646,,grey
,Trial,flow.Sequence,3_56_0,2022-03-01T09:37:05.366Z,,,,1,A,3900.0780000000086,completion,,,,197090.10000002384,197063.309,192729.889,192710.89999997616,193163.231,197246.646,,grey
,Frame,canvas.Frame,3_56,2022-03-01T09:37:05.366Z,,,,1,A,3926.9689999880793,,,,,197090.30000001192,197090.19999998808,192729.889,192573.39999997616,193163.231,197729.989,,grey
,Fixation,canvas.Screen,3_57_0_0,2022-03-01T09:37:07.709Z,,,,1,VA,1883.3709999999846,timeout,,,,199432.60000002384,199430.023,197246.646,197233.80000001192,197729.989,199613.36,,white
,Stimulus,canvas.Screen,3_57_0_1,2022-03-01T09:37:08.096Z,,,,1,VA,433.3420000000042,timeout,,,,199820,199796.697,199430.023,199457.5,199613.36,200046.702,,white
,Reaction,canvas.Screen,3_57_0_2,2022-03-01T09:37:09.808Z,,,,1,VA,1666.7000000000116,timeout,,,,201531.60000002384,201530.065,199796.697,199860.39999997616,200046.702,201713.402,,white
,Trial,flow.Sequence,3_57_0,2022-03-01T09:37:09.832Z,,,,1,VA,3800.076000000001,completion,,,,201556.39999997616,201530.065,197246.646,197233.69999998808,197729.989,201713.402,,white
,Frame,canvas.Frame,3_57,2022-03-01T09:37:09.833Z,,,,1,VA,3826.5109999999986,,,,,201556.5,201556.5,197246.646,197090.30000001192,197729.989,202163.411,,white
,Fixation,canvas.Screen,3_58_0_0,2022-03-01T09:37:12.291Z,,,,1,A,2033.3740000000107,timeout,,,,204015.19999998808,204013.448,201713.402,201698.89999997616,202163.411,204196.785,,grey
,Stimulus,canvas.Screen,3_58_0_1,2022-03-01T09:37:12.685Z,,,,1,A,433.3420000000042,timeout,,,,204408.80000001192,204396.789,204013.448,204040.19999998808,204196.785,204630.127,,grey
,Reaction,canvas.Screen,3_58_0_2,2022-03-01T09:37:14.392Z,,,,1,A,1666.6999999999825,timeout,,,,206115.60000002384,206113.49,204396.789,204445.80000001192,204630.127,206296.827,,grey
,Trial,flow.Sequence,3_58_0,2022-03-01T09:37:14.417Z,,,,1,A,3950.078999999998,completion,,,,206140.89999997616,206113.49,201713.402,201698.80000001192,202163.411,206296.827,,grey
,Frame,canvas.Frame,3_58,2022-03-01T09:37:14.417Z,,,,1,A,3977.589000000007,,,,,206141.10000002384,206141,201713.402,201556.60000002384,202163.411,206546.832,,grey
,Fixation,canvas.Screen,3_59_0_0,2022-03-01T09:37:16.375Z,,,,0,V,1733.3680000000168,timeout,,,,208098.89999997616,208096.863,206296.827,206289.69999998808,206546.832,208280.2,,white
,Stimulus,canvas.Screen,3_59_0_1,2022-03-01T09:37:16.815Z,,,,0,V,500.0099999999802,timeout,,,,208538.19999998808,208530.205,208096.863,208124.30000001192,208280.2,208780.21,,white
,Reaction,canvas.Screen,3_59_0_2,2022-03-01T09:37:18.542Z,,,,0,V,1666.7000000000116,timeout,,,,210265.69999998808,210263.573,208530.205,208623,208780.21,210446.91,,white
,Trial,flow.Sequence,3_59_0,2022-03-01T09:37:18.567Z,,,,0,V,3716.741000000009,completion,,,,210291.19999998808,210263.573,206296.827,206289.60000002384,206546.832,210446.91,,white
,Frame,canvas.Frame,3_59,2022-03-01T09:37:18.568Z,,,,0,V,3744.367999988084,,,,,210291.19999998808,210291.19999998808,206296.827,206141.10000002384,206546.832,210863.585,,white
,Fixation,canvas.Screen,3_60_0_0,2022-03-01T09:37:21.608Z,,,,1,VA,2783.3889999999956,timeout,,,,213332.10000002384,213330.301,210446.91,210437.10000002384,210863.585,213646.974,,white
,Stimulus,canvas.Screen,3_60_0_1,2022-03-01T09:37:22.243Z,,,,1,VA,583.3450000000012,timeout,,,,213966.5,213963.647,213330.301,213357.19999998808,213646.974,214230.319,,white
,Reaction,canvas.Screen,3_60_0_2,2022-03-01T09:37:23.993Z,,,,1,VA,1766.7020000000193,timeout,,,,215716.5,215713.682,213963.647,213993.10000002384,214230.319,215997.021,,white
,Trial,flow.Sequence,3_60_0,2022-03-01T09:37:24.016Z,,,,1,VA,4850.097000000009,completion,,,,215739.60000002384,215713.682,210446.91,210437,210863.585,215997.021,,white
,Frame,canvas.Frame,3_60,2022-03-01T09:37:24.016Z,,,,1,VA,4876.01500002385,,,,,215739.69999998808,215739.60000002384,210446.91,210291.30000001192,210863.585,216447.03,,white
,Fixation,canvas.Screen,3_61_0_0,2022-03-01T09:37:26.275Z,,,,1,A,1750.0350000000035,timeout,,,,217998.60000002384,217997.061,215997.021,215927.19999998808,216447.03,218197.065,,grey
,Stimulus,canvas.Screen,3_61_0_1,2022-03-01T09:37:26.682Z,,,,1,A,450.0089999999909,timeout,,,,218405.69999998808,218397.069,217997.061,218024.30000001192,218197.065,218647.074,,grey
,Reaction,canvas.Screen,3_61_0_2,2022-03-01T09:37:28.409Z,,,,1,A,1683.3669999999984,timeout,,,,220132,220130.437,218397.069,218470.39999997616,218647.074,220330.441,,grey
,Trial,flow.Sequence,3_61_0,2022-03-01T09:37:28.435Z,,,,1,A,3683.4070000000065,completion,,,,220158.39999997616,220130.437,215997.021,215927.19999998808,216447.03,220330.441,,grey
,Frame,canvas.Frame,3_61,2022-03-01T09:37:28.435Z,,,,1,A,3711.470000000001,,,,,220158.60000002384,220158.5,215997.021,215739.69999998808,216447.03,220813.784,,grey
,Fixation,canvas.Screen,3_62_0_0,2022-03-01T09:37:30.992Z,,,,1,VA,2100.0419999999867,timeout,,,,222715.80000001192,222713.822,220330.441,220312.69999998808,220813.784,222913.826,,white
,Stimulus,canvas.Screen,3_62_0_1,2022-03-01T09:37:31.447Z,,,,1,VA,466.67600000000675,timeout,,,,223170.30000001192,223113.83,222713.822,222742,222913.826,223380.502,,white
,Reaction,canvas.Screen,3_62_0_2,2022-03-01T09:37:33.142Z,,,,1,VA,1683.3669999999984,timeout,,,,224865.69999998808,224863.865,223113.83,223197.80000001192,223380.502,225063.869,,white
,Trial,flow.Sequence,3_62_0,2022-03-01T09:37:33.169Z,,,,1,VA,4050.0809999999765,completion,,,,224892.30000001192,224863.865,220330.441,220312.69999998808,220813.784,225063.869,,white
,Frame,canvas.Frame,3_62,2022-03-01T09:37:33.169Z,,,,1,VA,4078.5160000119067,,,,,224892.39999997616,224892.30000001192,220330.441,220158.60000002384,220813.784,225597.213,,white
,Fixation,canvas.Screen,3_63_0_0,2022-03-01T09:37:35.527Z,,,,0,V,1850.0370000000112,timeout,,,,227250,227247.246,225063.869,225047.60000002384,225597.213,227447.25,,white
,Stimulus,canvas.Screen,3_63_0_1,2022-03-01T09:37:35.948Z,,,,0,V,466.67600000000675,timeout,,,,227670.89999997616,227663.921,227247.246,227276.80000001192,227447.25,227913.926,,white
,Reaction,canvas.Screen,3_63_0_2,2022-03-01T09:37:36.736Z,,,,0,V,541.4739999761514,response,,stim_detected,keydown(Space),228459.60000002384,228455.39999997616,227663.921,227705.30000001192,227913.926,228647.274,,white
,Trial,flow.Sequence,3_63_0,2022-03-01T09:37:36.760Z,,,,0,V,2858.1869999761693,completion,,,,228483.10000002384,228455.39999997616,225063.869,225047.60000002384,225597.213,228647.274,,white
,Frame,canvas.Frame,3_63,2022-03-01T09:37:36.760Z,,,,0,V,2885.9869999880902,,,,,228483.30000001192,228483.19999998808,225063.869,224892.5,225597.213,228647.274,,white
,Fixation,canvas.Screen,3_64_0_0,2022-03-01T09:37:39.143Z,,,,0,V,2416.7149999999965,timeout,,,,230866.5,230863.985,228463.937,228639.89999997616,228647.274,231063.989,,white
,Stimulus,canvas.Screen,3_64_0_1,2022-03-01T09:37:39.570Z,,,,0,V,466.67600000000675,timeout,,,,231292.69999998808,231280.66,230863.985,230895.19999998808,231063.989,231530.665,,white
,Reaction,canvas.Screen,3_64_0_2,2022-03-01T09:37:41.293Z,,,,0,V,1683.3669999999984,timeout,,,,233015.80000001192,233014.028,231280.66,231346.10000002384,231530.665,233214.032,,white
,Trial,flow.Sequence,3_64_0,2022-03-01T09:37:41.320Z,,,,0,V,4366.753999999986,completion,,,,233043.30000001192,233014.028,228463.937,228639.80000001192,228647.274,233214.032,,white
,Frame,canvas.Frame,3_64,2022-03-01T09:37:41.320Z,,,,0,V,4396.125999976153,,,,,233043.39999997616,233043.39999997616,228463.937,228483.39999997616,228647.274,233747.376,,white
,Fixation,canvas.Screen,3_65_0_0,2022-03-01T09:37:43.710Z,,,,0,V,1883.3710000000137,timeout,,,,235433.39999997616,235430.743,233214.032,233202.30000001192,233747.376,235630.747,,white
,Stimulus,canvas.Screen,3_65_0_1,2022-03-01T09:37:44.179Z,,,,0,V,483.3429999999935,timeout,,,,235901.39999997616,235847.418,235430.743,235460.60000002384,235630.747,236114.09,,white
,Reaction,canvas.Screen,3_65_0_2,2022-03-01T09:37:45.877Z,,,,0,V,1683.3669999999984,timeout,,,,237599.39999997616,237597.453,235847.418,235929.89999997616,236114.09,237797.457,,white
,Trial,flow.Sequence,3_65_0,2022-03-01T09:37:45.904Z,,,,0,V,3850.0770000000193,completion,,,,237626.80000001192,237597.453,233214.032,233202.30000001192,233747.376,237797.457,,white
,Frame,canvas.Frame,3_65,2022-03-01T09:37:45.904Z,,,,0,V,3879.523999976169,,,,,237627,237626.89999997616,233214.032,233043.60000002384,233747.376,238080.796,,white
,Fixation,canvas.Screen,3_66_0_0,2022-03-01T09:37:48.827Z,,,,1,A,2666.720000000001,timeout,,,,240549.80000001192,240547.512,237797.457,237785,238080.796,240747.516,,grey
,Stimulus,canvas.Screen,3_66_0_1,2022-03-01T09:37:49.320Z,,,,1,A,550.0109999999986,timeout,,,,241042.69999998808,241030.855,240547.512,240577.10000002384,240747.516,241297.527,,grey
,Reaction,canvas.Screen,3_66_0_2,2022-03-01T09:37:51.061Z,,,,1,A,1700.033999999985,timeout,,,,242783.39999997616,242780.89,241030.855,241129.30000001192,241297.527,242997.561,,grey
,Trial,flow.Sequence,3_66_0,2022-03-01T09:37:51.088Z,,,,1,A,4700.094000000012,completion,,,,242811.19999998808,242780.89,237797.457,237784.89999997616,238080.796,242997.561,,grey
,Frame,canvas.Frame,3_66,2022-03-01T09:37:51.089Z,,,,1,A,4730.403999988077,,,,,242811.30000001192,242811.19999998808,237797.457,237627,238080.796,243464.237,,grey
,Fixation,canvas.Screen,3_67_0_0,2022-03-01T09:37:53.377Z,,,,1,A,1850.0370000000112,timeout,,,,245099.80000001192,245097.603,242997.561,242973.5,243464.237,245314.274,,grey
,Stimulus,canvas.Screen,3_67_0_1,2022-03-01T09:37:53.818Z,,,,1,A,483.3429999999935,timeout,,,,245540.69999998808,245530.945,245097.603,245128.19999998808,245314.274,245797.617,,grey
,Reaction,canvas.Screen,3_67_0_2,2022-03-01T09:37:55.561Z,,,,1,A,1700.0340000000142,timeout,,,,247283.60000002384,247280.98,245530.945,245597.19999998808,245797.617,247497.651,,grey
,Trial,flow.Sequence,3_67_0,2022-03-01T09:37:55.589Z,,,,1,A,3816.7430000000168,completion,,,,247311.5,247280.98,242997.561,242973.5,243464.237,247497.651,,grey
,Frame,canvas.Frame,3_67,2022-03-01T09:37:55.589Z,,,,1,A,3847.363000023848,,,,,247311.69999998808,247311.60000002384,242997.561,242811.30000001192,243464.237,248030.995,,grey
,Fixation,canvas.Screen,3_68_0_0,2022-03-01T09:37:58.611Z,,,,0,V,2500.0500000000175,timeout,,,,250334,250331.041,247497.651,247476.39999997616,248030.995,250531.045,,white
,Stimulus,canvas.Screen,3_68_0_1,2022-03-01T09:37:59.097Z,,,,0,V,516.676999999996,timeout,,,,250819.30000001192,250764.383,250331.041,250361.30000001192,250531.045,251047.722,,white
,Reaction,canvas.Screen,3_68_0_2,2022-03-01T09:38:00.811Z,,,,0,V,1700.033999999985,timeout,,,,252533,252531.085,250764.383,250852.30000001192,251047.722,252747.756,,white
,Trial,flow.Sequence,3_68_0,2022-03-01T09:38:00.838Z,,,,0,V,4500.0899999999965,completion,,,,252560.69999998808,252531.085,247497.651,247476.30000001192,248030.995,252747.756,,white
,Frame,canvas.Frame,3_68,2022-03-01T09:38:00.838Z,,,,0,V,4529.805000011926,,,,,252560.80000001192,252560.80000001192,247497.651,247311.69999998808,248030.995,253031.095,,white
,Fixation,canvas.Screen,3_69_0_0,2022-03-01T09:38:02.945Z,,,,1,A,1850.0370000000112,timeout,,,,254667,254664.461,252747.756,252728.39999997616,253031.095,254881.132,,grey
,Stimulus,canvas.Screen,3_69_0_1,2022-03-01T09:38:03.425Z,,,,1,A,550.0109999999986,timeout,,,,255146.89999997616,255131.137,254664.461,254695.19999998808,254881.132,255431.143,,grey
,Reaction,canvas.Screen,3_69_0_2,2022-03-01T09:38:05.195Z,,,,1,A,1700.033999999985,timeout,,,,256917.30000001192,256914.506,255131.137,255251,255431.143,257131.177,,grey
,Trial,flow.Sequence,3_69_0,2022-03-01T09:38:05.224Z,,,,1,A,3883.410999999993,completion,,,,256946.30000001192,256914.506,252747.756,252728.39999997616,253031.095,257131.177,,grey
,Frame,canvas.Frame,3_69,2022-03-01T09:38:05.224Z,,,,1,A,3915.2050000119198,,,,,256946.39999997616,256946.30000001192,252747.756,252560.89999997616,253031.095,257631.187,,grey
,Fixation,canvas.Screen,3_70_0_0,2022-03-01T09:38:07.544Z,,,,1,A,1850.036999999982,timeout,,,,259266.5,259264.553,257131.177,257115,257631.187,259481.224,,grey
,Stimulus,canvas.Screen,3_70_0_1,2022-03-01T09:38:08.068Z,,,,1,A,583.3450000000012,timeout,,,,259789.80000001192,259747.896,259264.553,259295.30000001192,259481.224,260064.569,,grey
,Reaction,canvas.Screen,3_70_0_2,2022-03-01T09:38:09.828Z,,,,1,A,1700.0340000000142,timeout,,,,261550.60000002384,261547.932,259747.896,259873.10000002384,260064.569,261764.603,,grey
,Trial,flow.Sequence,3_70_0,2022-03-01T09:38:09.858Z,,,,1,A,3916.7449999999953,completion,,,,261579.80000001192,261547.932,257131.177,257115,257631.187,261764.603,,grey
,Frame,canvas.Frame,3_70,2022-03-01T09:38:09.858Z,,,,1,A,3948.8129999999946,,,,,261580.10000002384,261580,257131.177,256946.5,257631.187,262281.28,,grey
,Fixation,canvas.Screen,3_71_0_0,2022-03-01T09:38:12.095Z,,,,1,VA,1750.0349999999744,timeout,,,,263817.1999999881,263814.644,261764.603,261752,262281.28,264031.315,,white
,Stimulus,canvas.Screen,3_71_0_1,2022-03-01T09:38:12.589Z,,,,1,VA,550.0109999999986,timeout,,,,264311.5,264297.987,263814.644,263846.5,264031.315,264581.326,,white
,Reaction,canvas.Screen,3_71_0_2,2022-03-01T09:38:14.344Z,,,,1,VA,1700.033999999985,timeout,,,,266066.5,266064.689,264297.987,264389.6999999881,264581.326,266281.36,,white
,Trial,flow.Sequence,3_71_0,2022-03-01T09:38:14.374Z,,,,1,VA,3783.408999999985,completion,,,,266096,266064.689,261764.603,261751.89999997616,262281.28,266281.36,,white
,Frame,canvas.Frame,3_71,2022-03-01T09:38:14.374Z,,,,1,VA,3814.820000023814,,,,,266096.10000002384,266096.10000002384,261764.603,261580.10000002384,262281.28,266814.704,,white
,Fixation,canvas.Screen,3_72_0_0,2022-03-01T09:38:17.078Z,,,,0,V,2200.0439999999944,timeout,,,,268800.3000000119,268798.077,266281.36,266270.10000002384,266814.704,269014.748,,white
,Stimulus,canvas.Screen,3_72_0_1,2022-03-01T09:38:17.571Z,,,,0,V,550.0109999999986,timeout,,,,269293.10000002384,269281.42,268798.077,268829.60000002384,269014.748,269564.759,,white
,Reaction,canvas.Screen,3_72_0_2,2022-03-01T09:38:19.328Z,,,,0,V,1716.701000000001,timeout,,,,271050.3000000119,271048.122,269281.42,269368.39999997616,269564.759,271281.46,,white
,Trial,flow.Sequence,3_72_0,2022-03-01T09:38:19.358Z,,,,0,V,4233.417999999947,completion,,,,271079.6999999881,271048.122,266281.36,266270,266814.704,271281.46,,white
,Frame,canvas.Frame,3_72,2022-03-01T09:38:19.358Z,,,,0,V,4264.995999988052,,,,,271079.8000000119,271079.6999999881,266281.36,266096.1999999881,266814.704,271831.471,,white
,Fixation,canvas.Screen,3_73_0_0,2022-03-01T09:38:21.929Z,,,,1,VA,2033.3739999999525,timeout,,,,273650.39999997616,273648.174,271281.46,271258.89999997616,271831.471,273864.845,,white
,Stimulus,canvas.Screen,3_73_0_1,2022-03-01T09:38:22.433Z,,,,1,VA,550.0110000000568,timeout,,,,274155.3000000119,274131.517,273648.174,273680.10000002384,273864.845,274414.856,,white
,Reaction,canvas.Screen,3_73_0_2,2022-03-01T09:38:24.179Z,,,,1,VA,1716.7009999999427,timeout,,,,275901.10000002384,275898.219,274131.517,274230,274414.856,276131.557,,white
,Trial,flow.Sequence,3_73_0,2022-03-01T09:38:24.209Z,,,,1,VA,4066.747999999963,completion,,,,275930.8000000119,275898.219,271281.46,271258.89999997616,271831.471,276131.557,,white
,Frame,canvas.Frame,3_73,2022-03-01T09:38:24.209Z,,,,1,VA,4099.329000011901,,,,,275930.89999997616,275930.8000000119,271281.46,271079.8000000119,271831.471,276664.901,,white
,Fixation,canvas.Screen,3_74_0_0,2022-03-01T09:38:27.329Z,,,,1,A,2616.7189999999828,timeout,,,,279050.10000002384,279048.282,276131.557,276110.10000002384,276664.901,279281.62,,grey
,Stimulus,canvas.Screen,3_74_0_1,2022-03-01T09:38:27.864Z,,,,1,A,583.3450000000303,timeout,,,,279585.39999997616,279564.959,279048.282,279080.60000002384,279281.62,279864.965,,grey
,Reaction,canvas.Screen,3_74_0_2,2022-03-01T09:38:29.629Z,,,,1,A,1716.701000000001,timeout,,,,281350.3000000119,281348.328,279564.959,279659.3000000119,279864.965,281581.666,,grey
,Trial,flow.Sequence,3_74_0,2022-03-01T09:38:29.659Z,,,,1,A,4683.426999999967,completion,,,,281380.6999999881,281348.328,276131.557,276110,276664.901,281581.666,,grey
,Frame,canvas.Frame,3_74,2022-03-01T09:38:29.659Z,,,,1,A,4715.899000011908,,,,,281380.89999997616,281380.8000000119,276131.557,275931,276664.901,282115.01,,grey
,Fixation,canvas.Screen,3_75_0_0,2022-03-01T09:38:31.963Z,,,,1,A,1800.0359999999637,timeout,,,,283684.10000002384,283681.708,281581.666,281561.6999999881,282115.01,283915.046,,grey
,Stimulus,canvas.Screen,3_75_0_1,2022-03-01T09:38:32.496Z,,,,1,A,583.3450000000303,timeout,,,,284217.6999999881,284198.385,283681.708,283715,283915.046,284498.391,,grey
,Reaction,canvas.Screen,3_75_0_2,2022-03-01T09:38:34.262Z,,,,1,A,1733.3680000000168,timeout,,,,285983.39999997616,285981.754,284198.385,284302.60000002384,284498.391,286231.759,,grey
,Trial,flow.Sequence,3_75_0,2022-03-01T09:38:34.288Z,,,,1,A,3866.744000000006,completion,,,,286009.6999999881,285981.754,281581.666,281561.60000002384,282115.01,286231.759,,grey
,Frame,canvas.Frame,3_75,2022-03-01T09:38:34.288Z,,,,1,A,3894.7900000119116,,,,,286009.89999997616,286009.8000000119,281581.666,281380.89999997616,282115.01,286815.104,,grey
,Fixation,canvas.Screen,3_76_0_0,2022-03-01T09:38:37.397Z,,,,0,V,2533.38400000002,timeout,,,,289117.8000000119,289115.15,286231.759,286204.6999999881,286815.104,289348.488,,white
,Stimulus,canvas.Screen,3_76_0_1,2022-03-01T09:38:37.926Z,,,,0,V,583.3449999999721,timeout,,,,289647.3000000119,289631.827,289115.15,289148.5,289348.488,289931.833,,white
,Reaction,canvas.Screen,3_76_0_2,2022-03-01T09:38:39.696Z,,,,0,V,1716.701000000001,timeout,,,,291417.39999997616,291415.196,289631.827,289728.8000000119,289931.833,291648.534,,white
,Trial,flow.Sequence,3_76_0,2022-03-01T09:38:39.727Z,,,,0,V,4600.092000000004,completion,,,,291448.39999997616,291415.196,286231.759,286204.6999999881,286815.104,291648.534,,white
,Frame,canvas.Frame,3_76,2022-03-01T09:38:39.727Z,,,,0,V,4633.295999976166,,,,,291448.5,291448.39999997616,286231.759,286009.89999997616,286815.104,292231.879,,white
,Fixation,canvas.Screen,3_77_0_0,2022-03-01T09:38:42.513Z,,,,1,VA,2250.0449999999837,timeout,,,,294234.3000000119,294231.919,291648.534,291632.6999999881,292231.879,294481.924,,white
,Stimulus,canvas.Screen,3_77_0_1,2022-03-01T09:38:43.085Z,,,,1,VA,583.3449999999721,timeout,,,,294806.39999997616,294798.597,294231.919,294265.1999999881,294481.924,295065.269,,white
,Reaction,canvas.Screen,3_77_0_2,2022-03-01T09:38:44.830Z,,,,1,VA,1750.0350000000326,timeout,,,,296551.10000002384,296548.632,294798.597,294841.1999999881,295065.269,296815.304,,white
,Trial,flow.Sequence,3_77_0,2022-03-01T09:38:44.861Z,,,,1,VA,4316.752999999968,completion,,,,296582.1999999881,296548.632,291648.534,291632.6999999881,292231.879,296815.304,,white
,Frame,canvas.Frame,3_77,2022-03-01T09:38:44.861Z,,,,1,VA,4350.320999988064,,,,,296582.1999999881,296582.1999999881,291648.534,291448.60000002384,292231.879,297098.643,,white
,Fixation,canvas.Screen,3_78_0_0,2022-03-01T09:38:47.629Z,,,,1,A,2483.3830000000307,timeout,,,,299350.3000000119,299348.688,296815.304,296801,297098.643,299582.026,,grey
,Stimulus,canvas.Screen,3_78_0_1,2022-03-01T09:38:48.182Z,,,,1,A,616.6790000000037,timeout,,,,299902.89999997616,299882.032,299348.688,299381.1999999881,299582.026,300198.705,,grey
,Reaction,canvas.Screen,3_78_0_2,2022-03-01T09:38:49.963Z,,,,1,A,1716.701000000001,timeout,,,,301683.8000000119,301682.068,299882.032,299985.1999999881,300198.705,301915.406,,grey
,Trial,flow.Sequence,3_78_0,2022-03-01T09:38:49.994Z,,,,1,A,4583.425000000047,completion,,,,301715.1999999881,301682.068,296815.304,296801,297098.643,301915.406,,grey
,Frame,canvas.Frame,3_78,2022-03-01T09:38:49.994Z,,,,1,A,4616.556999988097,,,,,301715.3000000119,301715.1999999881,296815.304,296582.3000000119,297098.643,302232.079,,grey
,Fixation,canvas.Screen,3_79_0_0,2022-03-01T09:38:52.114Z,,,,1,VA,1850.036999999953,timeout,,,,303834.5,303832.111,301915.406,301904.5,302232.079,304082.116,,white
,Stimulus,canvas.Screen,3_79_0_1,2022-03-01T09:38:52.673Z,,,,1,VA,600.0120000000461,timeout,,,,304393.6999999881,304382.122,303832.111,303868.39999997616,304082.116,304682.128,,white
,Reaction,canvas.Screen,3_79_0_2,2022-03-01T09:38:54.446Z,,,,1,VA,1733.3679999999586,timeout,,,,306167.10000002384,306165.491,304382.122,304477.10000002384,304682.128,306415.496,,white
,Trial,flow.Sequence,3_79_0,2022-03-01T09:38:54.477Z,,,,1,VA,3933.411999999953,completion,,,,306198.10000002384,306165.491,301915.406,301904.5,302232.079,306415.496,,white
,Frame,canvas.Frame,3_79,2022-03-01T09:38:54.477Z,,,,1,VA,3966.021000023815,,,,,306198.1999999881,306198.10000002384,301915.406,301715.39999997616,302232.079,306965.507,,white
,Fixation,canvas.Screen,3_80_0_0,2022-03-01T09:38:57.397Z,,,,1,VA,2400.04800000001,timeout,,,,309117.39999997616,309115.55,306415.496,306394.8000000119,306965.507,309365.555,,white
,Stimulus,canvas.Screen,3_80_0_1,2022-03-01T09:38:57.945Z,,,,1,VA,600.0119999999879,timeout,,,,309665.6999999881,309648.894,309115.55,309148.3000000119,309365.555,309965.567,,white
,Reaction,canvas.Screen,3_80_0_2,2022-03-01T09:38:59.731Z,,,,1,VA,1733.3680000000168,timeout,,,,311451.5,311448.93,309648.894,309751.60000002384,309965.567,311698.935,,white
,Trial,flow.Sequence,3_80_0,2022-03-01T09:38:59.763Z,,,,1,VA,4483.42300000001,completion,,,,311484,311448.93,306415.496,306394.8000000119,306965.507,311698.935,,white
,Frame,canvas.Frame,3_80,2022-03-01T09:38:59.763Z,,,,1,VA,4518.493000000017,,,,,311484.10000002384,311484,306415.496,306198.1999999881,306965.507,312298.947,,white
,Fixation,canvas.Screen,3_81_0_0,2022-03-01T09:39:02.664Z,,,,0,V,2333.3800000000047,timeout,,,,314384.5,314382.322,311698.935,311677.5,312298.947,314632.327,,white
,Stimulus,canvas.Screen,3_81_0_1,2022-03-01T09:39:03.233Z,,,,0,V,616.6790000000037,timeout,,,,314953.60000002384,314932.333,314382.322,314417,314632.327,315249.006,,white
,Reaction,canvas.Screen,3_81_0_2,2022-03-01T09:39:05.015Z,,,,0,V,1733.3680000000168,timeout,,,,316735,316732.369,314932.333,315035.8000000119,315249.006,316982.374,,white
,Trial,flow.Sequence,3_81_0,2022-03-01T09:39:05.047Z,,,,0,V,4433.4220000000205,completion,,,,316767.10000002384,316732.369,311698.935,311677.5,312298.947,316982.374,,white
,Frame,canvas.Frame,3_81,2022-03-01T09:39:05.047Z,,,,0,V,4468.2529999880935,,,,,316767.1999999881,316767.1999999881,311698.935,311484.1999999881,312298.947,317249.046,,white
,Fixation,canvas.Screen,3_82_0_0,2022-03-01T09:39:07.931Z,,,,1,A,2666.7200000000303,timeout,,,,319651.5,319649.094,316982.374,316965.89999997616,317249.046,319915.766,,grey
,Stimulus,canvas.Screen,3_82_0_1,2022-03-01T09:39:08.547Z,,,,1,A,666.679999999993,timeout,,,,320267,320249.106,319649.094,319684.10000002384,319915.766,320582.446,,grey
,Reaction,canvas.Screen,3_82_0_2,2022-03-01T09:39:10.347Z,,,,1,A,1733.3680000000168,timeout,,,,322067.5,322065.809,320249.106,320373.39999997616,320582.446,322315.814,,grey
,Trial,flow.Sequence,3_82_0,2022-03-01T09:39:10.379Z,,,,1,A,4816.763000000035,completion,,,,322099.6999999881,322065.809,316982.374,316965.8000000119,317249.046,322315.814,,grey
,Frame,canvas.Frame,3_82,2022-03-01T09:39:10.380Z,,,,1,A,4850.653999988106,,,,,322099.89999997616,322099.6999999881,316982.374,316767.3000000119,317249.046,322915.826,,grey
,Fixation,canvas.Screen,3_83_0_0,2022-03-01T09:39:13.315Z,,,,0,V,2366.713999999978,timeout,,,,325035.1999999881,325032.535,322315.814,322299.5,322915.826,325282.54,,white
,Stimulus,canvas.Screen,3_83_0_1,2022-03-01T09:39:13.895Z,,,,0,V,633.3460000000196,timeout,,,,325615.3000000119,325599.213,325032.535,325069.89999997616,325282.54,325915.886,,white
,Reaction,canvas.Screen,3_83_0_2,2022-03-01T09:39:15.682Z,,,,0,V,1750.0349999999744,timeout,,,,327401.8000000119,327399.249,325599.213,325689.89999997616,325915.886,327665.921,,white
,Trial,flow.Sequence,3_83_0,2022-03-01T09:39:15.712Z,,,,0,V,4483.42300000001,completion,,,,327432.39999997616,327399.249,322315.814,322299.5,322915.826,327665.921,,white
,Frame,canvas.Frame,3_83,2022-03-01T09:39:15.712Z,,,,0,V,4516.774000023841,,,,,327432.60000002384,327432.60000002384,322315.814,322099.89999997616,322915.826,328332.601,,white
,Fixation,canvas.Screen,3_84_0_0,2022-03-01T09:39:18.848Z,,,,0,V,2516.717000000004,timeout,,,,330567.8000000119,330565.979,327665.921,327651,328332.601,330849.318,,white
,Stimulus,canvas.Screen,3_84_0_1,2022-03-01T09:39:19.468Z,,,,0,V,666.679999999993,timeout,,,,331188.1999999881,331165.991,330565.979,330597,330849.318,331515.998,,white
,Reaction,canvas.Screen,3_84_0_2,2022-03-01T09:39:21.281Z,,,,0,V,1750.0349999999744,timeout,,,,333001.39999997616,332999.361,331165.991,331283.89999997616,331515.998,333266.033,,white
,Trial,flow.Sequence,3_84_0,2022-03-01T09:39:21.311Z,,,,0,V,4666.759999999951,completion,,,,333030.8000000119,332999.361,327665.921,327650.89999997616,328332.601,333266.033,,white
,Frame,canvas.Frame,3_84,2022-03-01T09:39:21.311Z,,,,0,V,4698.298999976134,,,,,333030.89999997616,333030.89999997616,327665.921,327432.60000002384,328332.601,333849.378,,white
,Fixation,canvas.Screen,3_85_0_0,2022-03-01T09:39:23.966Z,,,,1,VA,2100.0419999999576,timeout,,,,335685.5,335682.748,333266.033,333246.10000002384,333849.378,335949.42,,white
,Stimulus,canvas.Screen,3_85_0_1,2022-03-01T09:39:24.549Z,,,,1,VA,650.0130000000354,timeout,,,,336268.6999999881,336249.426,335682.748,335718.89999997616,335949.42,336599.433,,white
,Reaction,canvas.Screen,3_85_0_2,2022-03-01T09:39:26.142Z,,,,1,VA,1257.1670000238228,response,,stim_detected,keydown(Space),337862.1999999881,337856.60000002384,336249.426,336378.8000000119,336599.433,338116.13,,white
,Trial,flow.Sequence,3_85_0,2022-03-01T09:39:26.177Z,,,,1,VA,4007.222000023816,completion,,,,337896.39999997616,337856.60000002384,333266.033,333246.10000002384,333849.378,338116.13,,white
,Frame,canvas.Frame,3_85,2022-03-01T09:39:26.177Z,,,,1,VA,4047.121999999974,,,,,337896.5,337896.5,333266.033,333031.10000002384,333849.378,338116.13,,white
,Fixation,canvas.Screen,3_86_0_0,2022-03-01T09:39:28.866Z,,,,1,A,2733.387999999977,timeout,,,,340585.39999997616,340582.846,337882.792,338102.1999999881,338116.13,340849.518,,grey
,Stimulus,canvas.Screen,3_86_0_1,2022-03-01T09:39:29.471Z,,,,1,A,650.0130000000354,timeout,,,,341190.89999997616,341182.858,340582.846,340620.1999999881,340849.518,341499.531,,grey
,Reaction,canvas.Screen,3_86_0_2,2022-03-01T09:39:31.265Z,,,,1,A,1750.0349999999744,timeout,,,,342984.5,342982.894,341182.858,341265.6999999881,341499.531,343249.566,,grey
,Trial,flow.Sequence,3_86_0,2022-03-01T09:39:31.298Z,,,,1,A,4866.7639999999665,completion,,,,343018.1999999881,342982.894,337882.792,338102.1999999881,338116.13,343249.566,,grey
,Frame,canvas.Frame,3_86,2022-03-01T09:39:31.299Z,,,,1,A,4902.069999988074,,,,,343018.3000000119,343018.1999999881,337882.792,337896.5,338116.13,343882.912,,grey
,Fixation,canvas.Screen,3_87_0_0,2022-03-01T09:39:34.581Z,,,,0,V,2683.386999999988,timeout,,,,346300.89999997616,346299.627,343249.566,343231.3000000119,343882.912,346566.299,,white
,Stimulus,canvas.Screen,3_87_0_1,2022-03-01T09:39:35.189Z,,,,0,V,650.0129999999772,timeout,,,,346908.5,346882.972,346299.627,346335.1999999881,346566.299,347216.312,,white
,Reaction,canvas.Screen,3_87_0_2,2022-03-01T09:39:35.789Z,,,,0,V,42.88799998810282,response,,stim_detected,keydown(Space),347508.89999997616,347259.1999999881,346882.972,346982,347216.312,347832.991,,white
,Trial,flow.Sequence,3_87_0,2022-03-01T09:39:35.860Z,,,,0,V,3376.287999988068,completion,,,,347579.60000002384,347259.1999999881,343249.566,343231.3000000119,343882.912,347832.991,,white
,Frame,canvas.Frame,3_87,2022-03-01T09:39:35.860Z,,,,0,V,3696.6880000238307,,,,,347579.6999999881,347579.60000002384,343249.566,343018.39999997616,343882.912,347832.991,,white
,Fixation,canvas.Screen,3_88_0_0,2022-03-01T09:39:37.698Z,,,,1,VA,1850.0370000000112,timeout,,,,349417.6999999881,349416.356,347582.986,347817.89999997616,347832.991,349683.028,,white
,Stimulus,canvas.Screen,3_88_0_1,2022-03-01T09:39:38.323Z,,,,1,VA,683.3470000000088,timeout,,,,350042.89999997616,350016.368,349416.356,349451.5,349683.028,350366.375,,white
,Reaction,canvas.Screen,3_88_0_2,2022-03-01T09:39:40.133Z,,,,1,VA,1750.0349999999744,timeout,,,,351852.60000002384,351849.738,350016.368,350114.3000000119,350366.375,352116.41,,white
,Trial,flow.Sequence,3_88_0,2022-03-01T09:39:40.168Z,,,,1,VA,4016.747000000032,completion,,,,351887.39999997616,351849.738,347582.986,347817.8000000119,347832.991,352116.41,,white
,Frame,canvas.Frame,3_88,2022-03-01T09:39:40.168Z,,,,1,VA,4054.408999976178,,,,,351887.5,351887.39999997616,347582.986,347579.8000000119,347832.991,352766.423,,white
,Fixation,canvas.Screen,3_89_0_0,2022-03-01T09:39:43.133Z,,,,1,A,2350.0469999999623,timeout,,,,354852,354849.798,352116.41,352100,352766.423,355116.47,,grey
,Stimulus,canvas.Screen,3_89_0_1,2022-03-01T09:39:43.750Z,,,,1,A,666.6800000000512,timeout,,,,355469.39999997616,355449.81,354849.798,354886.60000002384,355116.47,355783.15,,grey
,Reaction,canvas.Screen,3_89_0_2,2022-03-01T09:39:45.550Z,,,,1,A,1750.0349999999744,timeout,,,,357269,357266.513,355449.81,355543.3000000119,355783.15,357533.185,,grey
,Trial,flow.Sequence,3_89_0,2022-03-01T09:39:45.585Z,,,,1,A,4500.089999999967,completion,,,,357303.6999999881,357266.513,352116.41,352099.89999997616,352766.423,357533.185,,grey
,Frame,canvas.Frame,3_89,2022-03-01T09:39:45.585Z,,,,1,A,4537.377000011911,,,,,357303.89999997616,357303.8000000119,352116.41,351887.60000002384,352766.423,358183.198,,grey
,Fixation,canvas.Screen,3_90_0_0,2022-03-01T09:39:48.833Z,,,,0,V,2633.3859999999986,timeout,,,,360552.3000000119,360549.912,357533.185,357517.39999997616,358183.198,360816.584,,white
,Stimulus,canvas.Screen,3_90_0_1,2022-03-01T09:39:49.450Z,,,,0,V,666.6800000000512,timeout,,,,361168.8000000119,361149.924,360549.912,360587.60000002384,360816.584,361483.264,,white
,Reaction,canvas.Screen,3_90_0_2,2022-03-01T09:39:51.249Z,,,,0,V,1766.7019999999902,timeout,,,,362968.5,362966.627,361149.924,361250.5,361483.264,363249.966,,white
,Trial,flow.Sequence,3_90_0,2022-03-01T09:39:51.284Z,,,,0,V,4783.429000000004,completion,,,,363003.5,362966.627,357533.185,357517.39999997616,358183.198,363249.966,,white
,Frame,canvas.Frame,3_90,2022-03-01T09:39:51.284Z,,,,0,V,4820.402000023867,,,,,363003.60000002384,363003.60000002384,357533.185,357304,358183.198,363899.979,,white
,Fixation,canvas.Screen,3_91_0_0,2022-03-01T09:39:53.933Z,,,,1,A,2033.3740000000107,timeout,,,,365652,365650.014,363249.966,363220.60000002384,363899.979,365933.353,,grey
,Stimulus,canvas.Screen,3_91_0_1,2022-03-01T09:39:54.562Z,,,,1,A,666.679999999993,timeout,,,,366281.1999999881,366266.693,365650.014,365687.10000002384,365933.353,366600.033,,grey
,Reaction,canvas.Screen,3_91_0_2,2022-03-01T09:39:56.366Z,,,,1,A,1766.7019999999902,timeout,,,,368085.10000002384,368083.396,366266.693,366361.60000002384,366600.033,368366.735,,grey
,Trial,flow.Sequence,3_91_0,2022-03-01T09:39:56.401Z,,,,1,A,4183.417000000016,completion,,,,368120.1999999881,368083.396,363249.966,363220.60000002384,363899.979,368366.735,,grey
,Frame,canvas.Frame,3_91,2022-03-01T09:39:56.401Z,,,,1,A,4220.220999988087,,,,,368120.3000000119,368120.1999999881,363249.966,363003.60000002384,363899.979,369016.748,,grey
,Fixation,canvas.Screen,3_92_0_0,2022-03-01T09:39:59.500Z,,,,0,V,2483.3829999999725,timeout,,,,371219.10000002384,371216.792,368366.735,368342.8000000119,369016.748,371500.131,,white
,Stimulus,canvas.Screen,3_92_0_1,2022-03-01T09:40:00.132Z,,,,0,V,666.679999999993,timeout,,,,371851.3000000119,371833.471,371216.792,371256.60000002384,371500.131,372166.811,,white
,Reaction,canvas.Screen,3_92_0_2,2022-03-01T09:40:01.934Z,,,,0,V,1766.7019999999902,timeout,,,,373652.89999997616,373650.174,371833.471,371927.10000002384,372166.811,373933.513,,white
,Trial,flow.Sequence,3_92_0,2022-03-01T09:40:01.970Z,,,,0,V,4633.425999999978,completion,,,,373688.60000002384,373650.174,368366.735,368342.8000000119,369016.748,373933.513,,white
,Frame,canvas.Frame,3_92,2022-03-01T09:40:01.970Z,,,,0,V,4671.85200002382,,,,,373688.6999999881,373688.60000002384,368366.735,368120.3000000119,369016.748,374600.193,,white
,Fixation,canvas.Screen,3_93_0_0,2022-03-01T09:40:04.951Z,,,,1,VA,2350.0469999999623,timeout,,,,376669.5,376666.901,373933.513,373914.8000000119,374600.193,376950.24,,white
,Stimulus,canvas.Screen,3_93_0_1,2022-03-01T09:40:05.580Z,,,,1,VA,683.3470000000088,timeout,,,,377298.8000000119,377283.58,376666.901,376705.10000002384,376950.24,377633.587,,white
,Reaction,canvas.Screen,3_93_0_2,2022-03-01T09:40:07.401Z,,,,1,VA,1766.7019999999902,timeout,,,,379119.60000002384,379116.95,377283.58,377373.1999999881,377633.587,379400.289,,white
,Trial,flow.Sequence,3_93_0,2022-03-01T09:40:07.437Z,,,,1,VA,4516.756999999983,completion,,,,379155.6999999881,379116.95,373933.513,373914.8000000119,374600.193,379400.289,,white
,Frame,canvas.Frame,3_93,2022-03-01T09:40:07.437Z,,,,1,VA,4555.6070000118925,,,,,379155.89999997616,379155.8000000119,373933.513,373688.6999999881,374600.193,380100.303,,white
,Fixation,canvas.Screen,3_94_0_0,2022-03-01T09:40:10.383Z,,,,1,VA,2283.378999999957,timeout,,,,382101.39999997616,382100.343,379400.289,379383.3000000119,380100.303,382383.682,,white
,Stimulus,canvas.Screen,3_94_0_1,2022-03-01T09:40:11.053Z,,,,1,VA,833.3500000000349,timeout,,,,382771.39999997616,382767.023,382100.343,382139.39999997616,382383.682,383217.032,,white
,Reaction,canvas.Screen,3_94_0_2,2022-03-01T09:40:12.983Z,,,,1,VA,1816.7029999999795,timeout,,,,384701.39999997616,384700.395,382767.023,382913.89999997616,383217.032,385033.735,,white
,Trial,flow.Sequence,3_94_0,2022-03-01T09:40:13.017Z,,,,1,VA,4600.092000000004,completion,,,,384735.8000000119,384700.395,379400.289,379383.3000000119,380100.303,385033.735,,white
,Frame,canvas.Frame,3_94,2022-03-01T09:40:13.017Z,,,,1,VA,4635.4970000119065,,,,,384735.89999997616,384735.8000000119,379400.289,379155.89999997616,380100.303,385500.411,,white
,Fixation,canvas.Screen,3_95_0_0,2022-03-01T09:40:15.384Z,,,,1,VA,1933.371999999974,timeout,,,,387102.39999997616,387100.443,385033.735,384997.6999999881,385500.411,387433.783,,white
,Stimulus,canvas.Screen,3_95_0_1,2022-03-01T09:40:16.164Z,,,,1,VA,833.3499999999767,timeout,,,,387882.39999997616,387850.458,387100.443,387136.60000002384,387433.783,388267.133,,white
,Reaction,canvas.Screen,3_95_0_2,2022-03-01T09:40:18.034Z,,,,1,VA,1850.0370000000112,timeout,,,,389752.6999999881,389750.496,387850.458,387954.6999999881,388267.133,390117.17,,white
,Trial,flow.Sequence,3_95_0,2022-03-01T09:40:18.079Z,,,,1,VA,4250.084999999963,completion,,,,389797.60000002384,389750.496,385033.735,384997.6999999881,385500.411,390117.17,,white
,Frame,canvas.Frame,3_95,2022-03-01T09:40:18.079Z,,,,1,VA,4297.18900002382,,,,,389797.6999999881,389797.60000002384,385033.735,384736,385500.411,390533.845,,white
,Fixation,canvas.Screen,3_96_0_0,2022-03-01T09:40:20.384Z,,,,1,VA,1966.7060000000056,timeout,,,,392102.1999999881,392100.543,390117.17,390091.89999997616,390533.845,392500.551,,white
,Stimulus,canvas.Screen,3_96_0_1,2022-03-01T09:40:21.307Z,,,,1,VA,933.3520000000135,timeout,,,,393025.5,393000.561,392100.543,392140.39999997616,392500.551,393433.903,,white
,Reaction,canvas.Screen,3_96_0_2,2022-03-01T09:40:23.201Z,,,,1,VA,1816.7030000000377,timeout,,,,394918.89999997616,394917.266,393000.561,393140.89999997616,393433.903,395250.606,,white
,Trial,flow.Sequence,3_96_0,2022-03-01T09:40:23.237Z,,,,1,VA,4383.421000000031,completion,,,,394954.6999999881,394917.266,390117.17,390091.89999997616,390533.845,395250.606,,white
,Frame,canvas.Frame,3_96,2022-03-01T09:40:23.237Z,,,,1,VA,4420.955000011949,,,,,394954.8000000119,394954.8000000119,390117.17,389797.8000000119,390533.845,395983.954,,white
,Fixation,canvas.Screen,3_97_0_0,2022-03-01T09:40:26.168Z,,,,1,A,2200.0439999999944,timeout,,,,397886.5,397883.992,395250.606,395224.5,395983.954,398183.998,,grey
,Stimulus,canvas.Screen,3_97_0_1,2022-03-01T09:40:26.854Z,,,,1,A,716.6809999999823,timeout,,,,398572,398567.339,397883.992,397924.39999997616,398183.998,398900.679,,grey
,Reaction,canvas.Screen,3_97_0_2,2022-03-01T09:40:28.668Z,,,,1,A,1783.369000000006,timeout,,,,400386.10000002384,400384.042,398567.339,398646,398900.679,400684.048,,grey
,Trial,flow.Sequence,3_97_0,2022-03-01T09:40:28.705Z,,,,1,A,4400.087999999989,completion,,,,400422.8000000119,400384.042,395250.606,395224.39999997616,395983.954,400684.048,,grey
,Frame,canvas.Frame,3_97,2022-03-01T09:40:28.705Z,,,,1,A,4438.846000011894,,,,,400422.8000000119,400422.8000000119,395250.606,394954.89999997616,395983.954,401067.389,,grey
,Fixation,canvas.Screen,3_98_0_0,2022-03-01T09:40:31.235Z,,,,1,A,2233.377999999968,timeout,,,,402952.60000002384,402950.76,400684.048,400657.60000002384,401067.389,403300.767,,grey
,Stimulus,canvas.Screen,3_98_0_1,2022-03-01T09:40:31.976Z,,,,1,A,750.015000000014,timeout,,,,403694.1999999881,403684.108,402950.76,402989.39999997616,403300.767,404050.782,,grey
,Reaction,canvas.Screen,3_98_0_2,2022-03-01T09:40:33.818Z,,,,1,A,1800.0360000000219,timeout,,,,405536,405534.145,403684.108,403775.3000000119,404050.782,405850.818,,grey
,Trial,flow.Sequence,3_98_0,2022-03-01T09:40:33.852Z,,,,1,A,4466.755999999994,completion,,,,405570.10000002384,405534.145,400684.048,400657.60000002384,401067.389,405850.818,,grey
,Frame,canvas.Frame,3_98,2022-03-01T09:40:33.852Z,,,,1,A,4502.810999988054,,,,,405570.1999999881,405570.1999999881,400684.048,400422.89999997616,401067.389,406600.833,,grey
,Fixation,canvas.Screen,3_99_0_0,2022-03-01T09:40:36.668Z,,,,1,VA,2083.375,timeout,,,,408385.8000000119,408384.202,405850.818,405822.8000000119,406600.833,408684.208,,white
,Stimulus,canvas.Screen,3_99_0_1,2022-03-01T09:40:37.375Z,,,,1,VA,766.6820000000298,timeout,,,,409093.1999999881,409084.216,408384.202,408424.5,408684.208,409450.89,,white
,Reaction,canvas.Screen,3_99_0_2,2022-03-01T09:40:37.749Z,,,,1,VA,31.7839999999851,response,,stim_detected,keydown(Space),409467,409116,409084.216,409183.3000000119,,410217.572,,white
,Trial,flow.Sequence,3_99_0,2022-03-01T09:40:37.792Z,,,,1,VA,2515.167000000016,completion,,,,409509.60000002384,409116,405850.818,405822.8000000119,406600.833,410217.572,,white
,Frame,canvas.Frame,3_99,2022-03-01T09:40:37.792Z,,,,1,VA,2908.866999988095,,,,,409509.6999999881,409509.6999999881,405850.818,405570.3000000119,406600.833,410217.572,,white
,Loop,flow.Loop,3,2022-03-01T09:40:37.792Z,,,,,,396366.7359999881,completion,,,,409509.89999997616,409509.6999999881,13126.297,13128.800000011921,13142.964,410217.572,,
,end,html.Page,4,2022-03-01T09:40:43.212Z,,,,,,4711.528000023856,form submission,,,,414929.6999999881,414929.10000002384,409450.89,409509.89999997616,410217.572,414934.333,,
,root,flow.Sequence,,2022-03-01T09:40:43.213Z,,,,,,413669.70700002386,completion,,,,414930.8000000119,414929.10000002384,1226.059,1236.199999988079,1259.393,414934.333,,