id,sender,sender_type,sender_id,timestamp,meta,,age,aud,condition,duration,ended_on,gender,time_commit,time_end,time_render,time_run,time_show,time_switch,url,vis
Buckley Tenenbaum,Hello,html.Page,0,2022-03-01T10:36:34.021Z,"{""labjs_version"":""20.2.4"",""labjs_build"":{""flavor"":""development"",""commit"":""f5b4a49f956347addd546a832a3327688c2c0fef""},""location"":""https://labjs.felixhenninger.com/api/labjs_preview/index.html"",""userAgent"":""Mozilla/5.0 (Macintosh; Intel Mac OS X 10_15_7) AppleWebKit/537.36 (KHTML, like Gecko) Chrome/98.0.4758.80 Safari/537.36"",""platform"":""MacIntel"",""language"":""de-DE"",""locale"":""de"",""timeZone"":""Europe/Berlin"",""timezoneOffset"":-60,""screen_width"":1440,""screen_height"":900,""scroll_width"":1440,""scroll_height"":708,""window_innerWidth"":1440,""window_innerHeight"":756,""devicePixelRatio"":1}",,5,,,15223.041000023843,form submission,no_ans,16401.19999998808,16400.600000023842,1160.892,1133.6000000238419,1177.559,16394.53,{},
,Instructions,html.Page,1,2022-03-01T10:36:35.995Z,,,,,,1980.070000023843,form submission,,18375,18374.600000023842,16377.863,16401.600000023842,16394.53,18377.903,,
,Change Background,canvas.Screen,2,2022-03-01T10:36:38.983Z,,,,,,3016.7270000000026,timeout,,21363.69999998808,21361.296,18361.236,18375.100000023842,18377.903,21394.63,,
,Fixation,canvas.Screen,3_0_0_0,2022-03-01T10:36:40.934Z,,,,1,VA,1933.3719999999994,timeout,,23313.899999976158,23311.335,21361.296,21365.100000023842,21394.63,23328.002,,white
,Stimulus,canvas.Screen,3_0_0_1,2022-03-01T10:36:41.033Z,,,,1,VA,100.00200000000041,timeout,,23412.899999976158,23411.337,23311.335,23314.30000001192,23328.002,23428.004,,white
,Reaction,canvas.Screen,3_0_0_2,2022-03-01T10:36:42.533Z,,,,1,VA,1500.0299999999988,timeout,,24913.600000023842,24911.367,23411.337,23413,23428.004,24928.034,,white
,Trial,flow.Sequence,3_0_0,2022-03-01T10:36:42.550Z,,,,1,VA,3516.7369999999974,completion,,24930.19999998808,24911.367,21361.296,21365,21394.63,24928.034,,white
,Frame,canvas.Frame,3_0,2022-03-01T10:36:42.550Z,,,,1,VA,3535.569999988078,,,24930.399999976158,24930.19999998808,21361.296,21364,21394.63,24944.701,,white
,Fixation,canvas.Screen,3_1_0_0,2022-03-01T10:36:44.234Z,,,,1,A,1683.3669999999984,timeout,,26613.80000001192,26611.401,24928.034,24931,24944.701,26628.068,,grey
,Stimulus,canvas.Screen,3_1_0_1,2022-03-01T10:36:44.334Z,,,,1,A,100.00200000000041,timeout,,26713.80000001192,26711.403,26611.401,26614.19999998808,26628.068,26728.07,,grey
,Reaction,canvas.Screen,3_1_0_2,2022-03-01T10:36:45.833Z,,,,1,A,1500.0299999999988,timeout,,28213.5,28211.433,26711.403,26714.100000023842,26728.07,28228.1,,grey
,Trial,flow.Sequence,3_1_0,2022-03-01T10:36:45.834Z,,,,1,A,3266.732,completion,,28214.100000023842,28211.433,24928.034,24930.899999976158,24944.701,28228.1,,grey
,Frame,canvas.Frame,3_1,2022-03-01T10:36:45.834Z,,,,1,A,3269.498999988078,,,28214.399999976158,28214.19999998808,24928.034,24930.399999976158,24944.701,28244.767,,grey
,Fixation,canvas.Screen,3_2_0_0,2022-03-01T10:36:47.853Z,,,,0,V,1983.3729999999996,timeout,,30232.80000001192,30211.473,28228.1,28215.399999976158,28244.767,30228.14,,white
,Stimulus,canvas.Screen,3_2_0_1,2022-03-01T10:36:47.934Z,,,,0,V,100.00200000000041,timeout,,30314,30311.475,30211.473,30232.899999976158,30228.14,30328.142,,white
,Reaction,canvas.Screen,3_2_0_2,2022-03-01T10:36:49.434Z,,,,0,V,1500.0299999999988,timeout,,31813.899999976158,31811.505,30311.475,30314.100000023842,30328.142,31828.172,,white
,Trial,flow.Sequence,3_2_0,2022-03-01T10:36:49.434Z,,,,0,V,3566.738000000001,completion,,31814.19999998808,31811.505,28228.1,28215.399999976158,28244.767,31828.172,,white
,Frame,canvas.Frame,3_2,2022-03-01T10:36:49.434Z,,,,0,V,3569.533000011921,,,31814.399999976158,31814.30000001192,28228.1,28214.600000023842,28244.767,31844.839,,white
,Fixation,canvas.Screen,3_3_0_0,2022-03-01T10:36:50.983Z,,,,1,A,1533.3640000000014,timeout,,33363.5,33361.536,31828.172,31815.600000023842,31844.839,33378.203,,grey
,Stimulus,canvas.Screen,3_3_0_1,2022-03-01T10:36:51.084Z,,,,1,A,100.00200000000041,timeout,,33464.39999997616,33461.538,33361.536,33363.89999997616,33378.203,33478.205,,grey
,Reaction,canvas.Screen,3_3_0_2,2022-03-01T10:36:52.584Z,,,,1,A,1500.0299999999988,timeout,,34963.80000001192,34961.568,33461.538,33464.60000002384,33478.205,34978.235,,grey
,Trial,flow.Sequence,3_3_0,2022-03-01T10:36:52.584Z,,,,1,A,3116.7289999999994,completion,,34964.10000002384,34961.568,31828.172,31815.399999976158,31844.839,34978.235,,grey
,Frame,canvas.Frame,3_3,2022-03-01T10:36:52.584Z,,,,1,A,3119.360999988079,,,34964.30000001192,34964.19999998808,31828.172,31814.600000023842,31844.839,34994.902,,grey
,Fixation,canvas.Screen,3_4_0_0,2022-03-01T10:36:54.200Z,,,,1,VA,1600.0319999999992,timeout,,36579.89999997616,36578.267,34978.235,34965.39999997616,34994.902,36594.934,,white
,Stimulus,canvas.Screen,3_4_0_1,2022-03-01T10:36:54.301Z,,,,1,VA,100.00200000000041,timeout,,36680.69999998808,36678.269,36578.267,36580.19999998808,36594.934,36694.936,,white
,Reaction,canvas.Screen,3_4_0_2,2022-03-01T10:36:55.801Z,,,,1,VA,1500.0299999999988,timeout,,38180.69999998808,38178.299,36678.269,36680.89999997616,36694.936,38194.966,,white
,Trial,flow.Sequence,3_4_0,2022-03-01T10:36:55.801Z,,,,1,VA,3183.396999999997,completion,,38181.10000002384,38178.299,34978.235,34965.30000001192,34994.902,38194.966,,white
,Frame,canvas.Frame,3_4,2022-03-01T10:36:55.801Z,,,,1,VA,3186.297999988077,,,38181.39999997616,38181.19999998808,34978.235,34964.5,34994.902,38211.633,,white
,Fixation,canvas.Screen,3_5_0_0,2022-03-01T10:36:57.401Z,,,,1,VA,1583.364999999998,timeout,,39780.69999998808,39778.331,38194.966,38182.69999998808,38211.633,39794.998,,white
,Stimulus,canvas.Screen,3_5_0_1,2022-03-01T10:36:57.501Z,,,,1,VA,100.00200000000041,timeout,,39880.60000002384,39878.333,39778.331,39781,39794.998,39895,,white
,Reaction,canvas.Screen,3_5_0_2,2022-03-01T10:36:59.001Z,,,,1,VA,1500.0299999999988,timeout,,41380.5,41378.363,39878.333,39881.19999998808,39895,41395.03,,white
,Trial,flow.Sequence,3_5_0,2022-03-01T10:36:59.001Z,,,,1,VA,3166.729999999996,completion,,41380.80000001192,41378.363,38194.966,38182.69999998808,38211.633,41395.03,,white
,Frame,canvas.Frame,3_5,2022-03-01T10:36:59.001Z,,,,1,VA,3169.2669999761565,,,41381,41380.89999997616,38194.966,38181.5,38211.633,41411.697,,white
,Fixation,canvas.Screen,3_6_0_0,2022-03-01T10:37:00.685Z,,,,1,VA,1666.699999999997,timeout,,43064.60000002384,43061.73,41395.03,41382.19999998808,41411.697,43078.397,,white
,Stimulus,canvas.Screen,3_6_0_1,2022-03-01T10:37:00.785Z,,,,1,VA,100.00200000000041,timeout,,43164.89999997616,43161.732,43061.73,43064.89999997616,43078.397,43178.399,,white
,Reaction,canvas.Screen,3_6_0_2,2022-03-01T10:37:02.287Z,,,,1,VA,1503.2020000000048,timeout,,44666.69999998808,44664.934,43161.732,43165.10000002384,43178.399,44681.601,,white
,Trial,flow.Sequence,3_6_0,2022-03-01T10:37:02.287Z,,,,1,VA,3253.237000000001,completion,,44667,44664.934,41395.03,41382,41411.697,44681.601,,white
,Frame,canvas.Frame,3_6,2022-03-01T10:37:02.287Z,,,,1,VA,3255.303,,,44667.10000002384,44667,41395.03,41381.10000002384,41411.697,44698.268,,white
,Fixation,canvas.Screen,3_7_0_0,2022-03-01T10:37:03.838Z,,,,0,V,1533.3640000000014,timeout,,46217.69999998808,46214.965,44681.601,44667.89999997616,44698.268,46231.632,,white
,Stimulus,canvas.Screen,3_7_0_1,2022-03-01T10:37:03.938Z,,,,0,V,100.00200000000041,timeout,,46317.89999997616,46314.967,46214.965,46218,46231.632,46331.634,,white
,Reaction,canvas.Screen,3_7_0_2,2022-03-01T10:37:05.437Z,,,,0,V,1500.0299999999988,timeout,,47817.10000002384,47814.997,46314.967,46318.30000001192,46331.634,47831.664,,white
,Trial,flow.Sequence,3_7_0,2022-03-01T10:37:05.438Z,,,,0,V,3116.7290000000066,completion,,47817.5,47814.997,44681.601,44667.89999997616,44698.268,47831.664,,white
,Frame,canvas.Frame,3_7,2022-03-01T10:37:05.438Z,,,,0,V,3119.3320000238455,,,47817.69999998808,47817.60000002384,44681.601,44667.19999998808,44698.268,47848.331,,white
,Fixation,canvas.Screen,3_8_0_0,2022-03-01T10:37:07.470Z,,,,1,A,2016.7070000000022,timeout,,49850.10000002384,49848.371,47831.664,47819,47848.331,49865.038,,grey
,Stimulus,canvas.Screen,3_8_0_1,2022-03-01T10:37:07.571Z,,,,1,A,100.00200000000041,timeout,,49951,49948.373,49848.371,49850.30000001192,49865.038,49965.04,,grey
,Reaction,canvas.Screen,3_8_0_2,2022-03-01T10:37:09.071Z,,,,1,A,1500.0299999999988,timeout,,51450.80000001192,51448.403,49948.373,49951.19999998808,49965.04,51465.07,,grey
,Trial,flow.Sequence,3_8_0,2022-03-01T10:37:09.072Z,,,,1,A,3600.072,completion,,51451.10000002384,51448.403,47831.664,47818.89999997616,47848.331,51465.07,,grey
,Frame,canvas.Frame,3_8,2022-03-01T10:37:09.072Z,,,,1,A,3602.8689999880808,,,51451.30000001192,51451.19999998808,47831.664,47817.80000001192,47848.331,51481.737,,grey
,Fixation,canvas.Screen,3_9_0_0,2022-03-01T10:37:10.771Z,,,,1,A,1683.3669999999984,timeout,,53150.30000001192,53148.437,51465.07,51452.39999997616,51481.737,53165.104,,grey
,Stimulus,canvas.Screen,3_9_0_1,2022-03-01T10:37:10.871Z,,,,1,A,100.00200000000041,timeout,,53250.60000002384,53248.439,53148.437,53150.5,53165.104,53265.106,,grey
,Reaction,canvas.Screen,3_9_0_2,2022-03-01T10:37:12.370Z,,,,1,A,1500.0299999999988,timeout,,54749.5,54748.469,53248.439,53250.80000001192,53265.106,54765.136,,grey
,Trial,flow.Sequence,3_9_0,2022-03-01T10:37:12.370Z,,,,1,A,3266.7319999999963,completion,,54749.89999997616,54748.469,51465.07,51452.19999998808,51481.737,54765.136,,grey
,Frame,canvas.Frame,3_9,2022-03-01T10:37:12.371Z,,,,1,A,3268.162999976157,,,54750.10000002384,54749.89999997616,51465.07,51451.39999997616,51481.737,54781.803,,grey
,Fixation,canvas.Screen,3_10_0_0,2022-03-01T10:37:13.924Z,,,,1,A,1533.3640000000014,timeout,,56303,56298.5,54765.136,54751.10000002384,54781.803,56315.167,,grey
,Stimulus,canvas.Screen,3_10_0_1,2022-03-01T10:37:14.023Z,,,,1,A,100.00200000000041,timeout,,56402.10000002384,56398.502,56298.5,56303.80000001192,56315.167,56415.169,,grey
,Reaction,canvas.Screen,3_10_0_2,2022-03-01T10:37:15.521Z,,,,1,A,1500.0299999999988,timeout,,57900,57898.532,56398.502,56402.30000001192,56415.169,57915.199,,grey
,Trial,flow.Sequence,3_10_0,2022-03-01T10:37:15.521Z,,,,1,A,3116.7289999999994,completion,,57900.19999998808,57898.532,54765.136,54751,54781.803,57915.199,,grey
,Frame,canvas.Frame,3_10,2022-03-01T10:37:15.521Z,,,,1,A,3118.396999988079,,,57900.30000001192,57900.19999998808,54765.136,54750.19999998808,54781.803,57931.866,,grey
,Fixation,canvas.Screen,3_11_0_0,2022-03-01T10:37:17.639Z,,,,1,A,2100.0420000000013,timeout,,60018,60015.241,57915.199,57901.30000001192,57931.866,60031.908,,grey
,Stimulus,canvas.Screen,3_11_0_1,2022-03-01T10:37:17.738Z,,,,1,A,100.00200000000041,timeout,,60117.60000002384,60115.243,60015.241,60018.30000001192,60031.908,60131.91,,grey
,Reaction,canvas.Screen,3_11_0_2,2022-03-01T10:37:19.237Z,,,,1,A,1500.0299999999988,timeout,,61616.60000002384,61615.273,60115.243,60117.80000001192,60131.91,61631.94,,grey
,Trial,flow.Sequence,3_11_0,2022-03-01T10:37:19.238Z,,,,1,A,3683.4069999999992,completion,,61616.89999997616,61615.273,57915.199,57901.19999998808,57931.866,61631.94,,grey
,Frame,canvas.Frame,3_11,2022-03-01T10:37:19.238Z,,,,1,A,3685.133999999998,,,61617.10000002384,61617,57915.199,57900.39999997616,57931.866,61648.607,,grey
,Fixation,canvas.Screen,3_12_0_0,2022-03-01T10:37:21.122Z,,,,1,A,1866.703999999998,timeout,,63501.39999997616,63498.644,61631.94,61618,61648.607,63515.311,,grey
,Stimulus,canvas.Screen,3_12_0_1,2022-03-01T10:37:21.222Z,,,,1,A,100.00200000000041,timeout,,63600.80000001192,63598.646,63498.644,63501.60000002384,63515.311,63615.313,,grey
,Reaction,canvas.Screen,3_12_0_2,2022-03-01T10:37:22.721Z,,,,1,A,1500.0299999999988,timeout,,65099.69999998808,65098.676,63598.646,63601.10000002384,63615.313,65115.343,,grey
,Trial,flow.Sequence,3_12_0,2022-03-01T10:37:22.721Z,,,,1,A,3450.068999999996,completion,,65100,65098.676,61631.94,61618,61648.607,65115.343,,grey
,Frame,canvas.Frame,3_12,2022-03-01T10:37:22.721Z,,,,1,A,3451.4930000238382,,,65100.19999998808,65100.10000002384,61631.94,61617.30000001192,61648.607,65132.01,,grey
,Fixation,canvas.Screen,3_13_0_0,2022-03-01T10:37:24.405Z,,,,1,VA,1666.7000000000044,timeout,,66784.5,66782.043,65115.343,65101.30000001192,65132.01,66798.71,,white
,Stimulus,canvas.Screen,3_13_0_1,2022-03-01T10:37:24.505Z,,,,1,VA,100.00199999999313,timeout,,66884.30000001192,66882.045,66782.043,66784.60000002384,66798.71,66898.712,,white
,Reaction,canvas.Screen,3_13_0_2,2022-03-01T10:37:26.005Z,,,,1,VA,1500.0299999999988,timeout,,68383.89999997616,68382.075,66882.045,66884.60000002384,66898.712,68398.742,,white
,Trial,flow.Sequence,3_13_0,2022-03-01T10:37:26.005Z,,,,1,VA,3250.064999999995,completion,,68384.30000001192,68382.075,65115.343,65101.30000001192,65132.01,68398.742,,white
,Frame,canvas.Frame,3_13,2022-03-01T10:37:26.005Z,,,,1,VA,3252.290000011919,,,68384.39999997616,68384.30000001192,65115.343,65100.30000001192,65132.01,68415.409,,white
,Fixation,canvas.Screen,3_14_0_0,2022-03-01T10:37:27.624Z,,,,1,VA,1600.0320000000065,timeout,,70003,69998.774,68398.742,68385.30000001192,68415.409,70015.441,,white
,Stimulus,canvas.Screen,3_14_0_1,2022-03-01T10:37:27.722Z,,,,1,VA,100.00199999999313,timeout,,70101.19999998808,70098.776,69998.774,70003.10000002384,70015.441,70115.443,,white
,Reaction,canvas.Screen,3_14_0_2,2022-03-01T10:37:29.221Z,,,,1,VA,1500.0299999999988,timeout,,71599.89999997616,71598.806,70098.776,70101.60000002384,70115.443,71615.473,,white
,Trial,flow.Sequence,3_14_0,2022-03-01T10:37:29.221Z,,,,1,VA,3183.396999999997,completion,,71600.19999998808,71598.806,68398.742,68385.30000001192,68415.409,71615.473,,white
,Frame,canvas.Frame,3_14,2022-03-01T10:37:29.221Z,,,,1,VA,3184.8910000119213,,,71600.39999997616,71600.30000001192,68398.742,68384.5,68415.409,71632.14,,white
,Fixation,canvas.Screen,3_15_0_0,2022-03-01T10:37:31.271Z,,,,1,A,2033.3739999999962,timeout,,73650.10000002384,73648.847,71615.473,71601.39999997616,71632.14,73665.514,,grey
,Stimulus,canvas.Screen,3_15_0_1,2022-03-01T10:37:31.372Z,,,,1,A,100.00200000000768,timeout,,73751.30000001192,73748.849,73648.847,73650.19999998808,73665.514,73765.516,,grey
,Reaction,canvas.Screen,3_15_0_2,2022-03-01T10:37:32.872Z,,,,1,A,1500.0299999999988,timeout,,75250.89999997616,75248.879,73748.849,73751.39999997616,73765.516,75265.546,,grey
,Trial,flow.Sequence,3_15_0,2022-03-01T10:37:32.872Z,,,,1,A,3616.7390000000014,completion,,75251.19999998808,75248.879,71615.473,71601.39999997616,71632.14,75265.546,,grey
,Frame,canvas.Frame,3_15,2022-03-01T10:37:32.874Z,,,,1,A,3619.0599999880797,,,75253,75251.19999998808,71615.473,71600.60000002384,71632.14,75282.213,,grey
,Fixation,canvas.Screen,3_16_0_0,2022-03-01T10:37:35.239Z,,,,1,A,2350.0469999999914,timeout,,77618,77615.593,75265.546,75253.89999997616,75282.213,77632.26,,grey
,Stimulus,canvas.Screen,3_16_0_1,2022-03-01T10:37:35.340Z,,,,1,A,100.00200000000768,timeout,,77718.39999997616,77715.595,77615.593,77618.30000001192,77632.26,77732.262,,grey
,Reaction,canvas.Screen,3_16_0_2,2022-03-01T10:37:36.839Z,,,,1,A,1500.0299999999988,timeout,,79217.5,79215.625,77715.595,77718.60000002384,77732.262,79232.292,,grey
,Trial,flow.Sequence,3_16_0,2022-03-01T10:37:36.839Z,,,,1,A,3933.4119999999966,completion,,79217.80000001192,79215.625,75265.546,75253.80000001192,75282.213,79232.292,,grey
,Frame,canvas.Frame,3_16,2022-03-01T10:37:36.839Z,,,,1,A,3935.6869999761548,,,79218,79217.89999997616,75265.546,75253.19999998808,75282.213,79248.959,,grey
,Fixation,canvas.Screen,3_17_0_0,2022-03-01T10:37:38.672Z,,,,0,V,1816.702999999994,timeout,,81050.60000002384,81048.995,79232.292,79219,79248.959,81065.662,,white
,Stimulus,canvas.Screen,3_17_0_1,2022-03-01T10:37:38.772Z,,,,0,V,100.00200000000768,timeout,,81150.39999997616,81148.997,81048.995,81050.80000001192,81065.662,81165.664,,white
,Reaction,canvas.Screen,3_17_0_2,2022-03-01T10:37:40.274Z,,,,0,V,1500.0299999999988,timeout,,82652.60000002384,82649.027,81148.997,81150.60000002384,81165.664,82665.694,,white
,Trial,flow.Sequence,3_17_0,2022-03-01T10:37:40.274Z,,,,0,V,3400.0679999999993,completion,,82653.10000002384,82649.027,79232.292,79218.89999997616,79248.959,82665.694,,white
,Frame,canvas.Frame,3_17,2022-03-01T10:37:40.275Z,,,,0,V,3404.2409999880765,,,82653.39999997616,82653.19999998808,79232.292,79218.10000002384,79248.959,82682.361,,white
,Fixation,canvas.Screen,3_18_0_0,2022-03-01T10:37:42.506Z,,,,1,VA,2216.7109999999957,timeout,,84884.19999998808,84882.405,82665.694,82654.5,82682.361,84899.072,,white
,Stimulus,canvas.Screen,3_18_0_1,2022-03-01T10:37:42.606Z,,,,1,VA,100.00199999999313,timeout,,84984.5,84982.407,84882.405,84884.39999997616,84899.072,84999.074,,white
,Reaction,canvas.Screen,3_18_0_2,2022-03-01T10:37:44.107Z,,,,1,VA,1500.0300000000134,timeout,,86485.19999998808,86482.437,84982.407,84984.60000002384,84999.074,86499.104,,white
,Trial,flow.Sequence,3_18_0,2022-03-01T10:37:44.107Z,,,,1,VA,3800.076000000001,completion,,86485.60000002384,86482.437,82665.694,82654.30000001192,82682.361,86499.104,,white
,Frame,canvas.Frame,3_18,2022-03-01T10:37:44.107Z,,,,1,VA,3803.3389999880746,,,86486.10000002384,86485.69999998808,82665.694,82653.60000002384,82682.361,86515.771,,white
,Fixation,canvas.Screen,3_19_0_0,2022-03-01T10:37:45.922Z,,,,1,A,1800.0360000000073,timeout,,88300.89999997616,88299.14,86499.104,86487.39999997616,86515.771,88315.807,,grey
,Stimulus,canvas.Screen,3_19_0_1,2022-03-01T10:37:46.023Z,,,,1,A,100.00199999999313,timeout,,88401.60000002384,88399.142,88299.14,88301.30000001192,88315.807,88415.809,,grey
,Reaction,canvas.Screen,3_19_0_2,2022-03-01T10:37:47.523Z,,,,1,A,1500.0300000000134,timeout,,89901.5,89899.172,88399.142,88401.80000001192,88415.809,89915.839,,grey
,Trial,flow.Sequence,3_19_0,2022-03-01T10:37:47.523Z,,,,1,A,3383.4010000000126,completion,,89901.80000001192,89899.172,86499.104,86487.30000001192,86515.771,89915.839,,grey
,Frame,canvas.Frame,3_19,2022-03-01T10:37:47.523Z,,,,1,A,3386.128999976165,,,89902,89901.89999997616,86499.104,86486.19999998808,86515.771,89932.506,,grey
,Fixation,canvas.Screen,3_20_0_0,2022-03-01T10:37:49.556Z,,,,1,A,2016.7070000000094,timeout,,91934.30000001192,91932.546,89915.839,89902.89999997616,89932.506,91949.213,,grey
,Stimulus,canvas.Screen,3_20_0_1,2022-03-01T10:37:49.657Z,,,,1,A,100.00199999999313,timeout,,92035,92032.548,91932.546,91934.5,91949.213,92049.215,,grey
,Reaction,canvas.Screen,3_20_0_2,2022-03-01T10:37:51.156Z,,,,1,A,1500.0299999999988,timeout,,93534.80000001192,93532.578,92032.548,92035.10000002384,92049.215,93549.245,,grey
,Trial,flow.Sequence,3_20_0,2022-03-01T10:37:51.157Z,,,,1,A,3600.072,completion,,93535.10000002384,93532.578,89915.839,89902.89999997616,89932.506,93549.245,,grey
,Frame,canvas.Frame,3_20,2022-03-01T10:37:51.157Z,,,,1,A,3602.893999976164,,,93535.60000002384,93535.39999997616,89915.839,89902.10000002384,89932.506,93565.912,,grey
,Fixation,canvas.Screen,3_21_0_0,2022-03-01T10:37:52.773Z,,,,1,A,1600.0320000000065,timeout,,95151.89999997616,95149.277,93549.245,93536.69999998808,93565.912,95165.944,,grey
,Stimulus,canvas.Screen,3_21_0_1,2022-03-01T10:37:52.872Z,,,,1,A,100.00199999999313,timeout,,95250.80000001192,95249.279,95149.277,95152.30000001192,95165.944,95265.946,,grey
,Reaction,canvas.Screen,3_21_0_2,2022-03-01T10:37:54.373Z,,,,1,A,1500.0299999999988,timeout,,96751,96749.309,95249.279,95251,95265.946,96765.976,,grey
,Trial,flow.Sequence,3_21_0,2022-03-01T10:37:54.373Z,,,,1,A,3183.396999999997,completion,,96751.30000001192,96749.309,93549.245,93536.69999998808,93565.912,96765.976,,grey
,Frame,canvas.Frame,3_21,2022-03-01T10:37:54.373Z,,,,1,A,3185.5880000000034,,,96751.69999998808,96751.5,93549.245,93535.69999998808,93565.912,96782.643,,grey
,Fixation,canvas.Screen,3_22_0_0,2022-03-01T10:37:56.107Z,,,,1,A,1716.701000000001,timeout,,98485.10000002384,98482.677,96765.976,96752.80000001192,96782.643,98499.344,,grey
,Stimulus,canvas.Screen,3_22_0_1,2022-03-01T10:37:56.206Z,,,,1,A,100.00200000000768,timeout,,98584.5,98582.679,98482.677,98485.19999998808,98499.344,98599.346,,grey
,Reaction,canvas.Screen,3_22_0_2,2022-03-01T10:37:57.707Z,,,,1,A,1500.0299999999988,timeout,,100085,100082.709,98582.679,98584.60000002384,98599.346,100099.376,,grey
,Trial,flow.Sequence,3_22_0,2022-03-01T10:37:57.707Z,,,,1,A,3300.066000000006,completion,,100085.30000001192,100082.709,96765.976,96752.80000001192,96782.643,100099.376,,grey
,Frame,canvas.Frame,3_22,2022-03-01T10:37:57.707Z,,,,1,A,3302.7569999761618,,,100085.5,100085.39999997616,96765.976,96751.80000001192,96782.643,100116.043,,grey
,Fixation,canvas.Screen,3_23_0_0,2022-03-01T10:37:59.840Z,,,,1,A,2116.708999999988,timeout,,102217.69999998808,102216.085,100099.376,100086.60000002384,100116.043,102232.752,,grey
,Stimulus,canvas.Screen,3_23_0_1,2022-03-01T10:37:59.940Z,,,,1,A,100.00200000000768,timeout,,102318,102316.087,102216.085,102217.89999997616,102232.752,102332.754,,grey
,Reaction,canvas.Screen,3_23_0_2,2022-03-01T10:38:01.440Z,,,,1,A,1500.0299999999988,timeout,,103817.89999997616,103816.117,102316.087,102318.19999998808,102332.754,103832.784,,grey
,Trial,flow.Sequence,3_23_0,2022-03-01T10:38:01.440Z,,,,1,A,3700.0739999999932,completion,,103818.30000001192,103816.117,100099.376,100086.60000002384,100116.043,103832.784,,grey
,Frame,canvas.Frame,3_23,2022-03-01T10:38:01.440Z,,,,1,A,3702.257000011916,,,103818.39999997616,103818.30000001192,100099.376,100085.69999998808,100116.043,103849.451,,grey
,Fixation,canvas.Screen,3_24_0_0,2022-03-01T10:38:03.773Z,,,,1,A,2316.7130000000034,timeout,,106151.19999998808,106149.497,103832.784,103819.5,103849.451,106166.164,,grey
,Stimulus,canvas.Screen,3_24_0_1,2022-03-01T10:38:03.873Z,,,,1,A,100.00199999999313,timeout,,106251.19999998808,106249.499,106149.497,106151.5,106166.164,106266.166,,grey
,Reaction,canvas.Screen,3_24_0_2,2022-03-01T10:38:05.375Z,,,,1,A,1500.0299999999988,timeout,,107752.69999998808,107749.529,106249.499,106251.39999997616,106266.166,107766.196,,grey
,Trial,flow.Sequence,3_24_0,2022-03-01T10:38:05.375Z,,,,1,A,3900.077999999994,completion,,107753.10000002384,107749.529,103832.784,103819.39999997616,103849.451,107766.196,,grey
,Frame,canvas.Frame,3_24,2022-03-01T10:38:05.375Z,,,,1,A,3903.649000023841,,,107753.30000001192,107753.10000002384,103832.784,103818.5,103849.451,107782.863,,grey
,Fixation,canvas.Screen,3_25_0_0,2022-03-01T10:38:07.241Z,,,,1,VA,1850.0369999999966,timeout,,109618.89999997616,109616.233,107766.196,107754.39999997616,107782.863,109632.9,,white
,Stimulus,canvas.Screen,3_25_0_1,2022-03-01T10:38:07.340Z,,,,1,VA,100.00200000000768,timeout,,109718.30000001192,109716.235,109616.233,109619.10000002384,109632.9,109732.902,,white
,Reaction,canvas.Screen,3_25_0_2,2022-03-01T10:38:08.841Z,,,,1,VA,1500.0299999999988,timeout,,111219,111216.265,109716.235,109718.5,109732.902,111232.932,,white
,Trial,flow.Sequence,3_25_0,2022-03-01T10:38:08.841Z,,,,1,VA,3433.402000000002,completion,,111219.19999998808,111216.265,107766.196,107754.30000001192,107782.863,111232.932,,white
,Frame,canvas.Frame,3_25,2022-03-01T10:38:08.841Z,,,,1,VA,3436.4370000119234,,,111219.5,111219.30000001192,107766.196,107753.39999997616,107782.863,111249.599,,white
,Fixation,canvas.Screen,3_26_0_0,2022-03-01T10:38:10.990Z,,,,1,A,2133.376000000004,timeout,,113368.30000001192,113366.308,111232.932,111220.39999997616,111249.599,113382.975,,grey
,Stimulus,canvas.Screen,3_26_0_1,2022-03-01T10:38:11.091Z,,,,1,A,100.00199999999313,timeout,,113468.5,113466.31,113366.308,113368.60000002384,113382.975,113482.977,,grey
,Reaction,canvas.Screen,3_26_0_2,2022-03-01T10:38:12.591Z,,,,1,A,1500.0299999999988,timeout,,114968.69999998808,114966.34,113466.31,113468.69999998808,113482.977,114983.007,,grey
,Trial,flow.Sequence,3_26_0,2022-03-01T10:38:12.591Z,,,,1,A,3716.7409999999945,completion,,114968.89999997616,114966.34,111232.932,111220.30000001192,111249.599,114983.007,,grey
,Frame,canvas.Frame,3_26,2022-03-01T10:38:12.591Z,,,,1,A,3719.300999976156,,,114968.89999997616,114968.89999997616,111232.932,111219.5,111249.599,114999.674,,grey
,Fixation,canvas.Screen,3_27_0_0,2022-03-01T10:38:14.159Z,,,,1,VA,1550.0310000000027,timeout,,116536.89999997616,116533.038,114983.007,114969.60000002384,114999.674,116549.705,,white
,Stimulus,canvas.Screen,3_27_0_1,2022-03-01T10:38:14.258Z,,,,1,VA,100.00199999999313,timeout,,116635.39999997616,116633.04,116533.038,116537.19999998808,116549.705,116649.707,,white
,Reaction,canvas.Screen,3_27_0_2,2022-03-01T10:38:15.756Z,,,,1,VA,1500.0299999999988,timeout,,118134,118133.07,116633.04,116635.60000002384,116649.707,118149.737,,white
,Trial,flow.Sequence,3_27_0,2022-03-01T10:38:15.757Z,,,,1,VA,3133.396000000008,completion,,118134.30000001192,118133.07,114983.007,114969.5,114999.674,118149.737,,white
,Frame,canvas.Frame,3_27,2022-03-01T10:38:15.757Z,,,,1,VA,3134.626000011922,,,118134.39999997616,118134.30000001192,114983.007,114969,114999.674,118166.404,,white
,Fixation,canvas.Screen,3_28_0_0,2022-03-01T10:38:17.907Z,,,,1,VA,2133.376000000004,timeout,,120284.89999997616,120283.113,118149.737,118135,118166.404,120299.78,,white
,Stimulus,canvas.Screen,3_28_0_1,2022-03-01T10:38:18.008Z,,,,1,VA,100.00200000000768,timeout,,120386.10000002384,120383.115,120283.113,120285,120299.78,120399.782,,white
,Reaction,canvas.Screen,3_28_0_2,2022-03-01T10:38:19.508Z,,,,1,VA,1500.0299999999988,timeout,,121885.39999997616,121883.145,120383.115,120388.10000002384,120399.782,121899.812,,white
,Trial,flow.Sequence,3_28_0,2022-03-01T10:38:19.508Z,,,,1,VA,3716.741000000009,completion,,121885.69999998808,121883.145,118149.737,118134.89999997616,118166.404,121899.812,,white
,Frame,canvas.Frame,3_28,2022-03-01T10:38:19.508Z,,,,1,VA,3719.396000011926,,,121885.89999997616,121885.80000001192,118149.737,118134.39999997616,118166.404,121916.479,,white
,Fixation,canvas.Screen,3_29_0_0,2022-03-01T10:38:21.190Z,,,,1,VA,1666.699999999997,timeout,,123567.89999997616,123566.512,121899.812,121886.89999997616,121916.479,123583.179,,white
,Stimulus,canvas.Screen,3_29_0_1,2022-03-01T10:38:21.291Z,,,,1,VA,100.00199999999313,timeout,,123668.80000001192,123666.514,123566.512,123568.10000002384,123583.179,123683.181,,white
,Reaction,canvas.Screen,3_29_0_2,2022-03-01T10:38:22.804Z,,,,1,VA,1500.0299999999988,timeout,,125181.60000002384,125166.544,123666.514,123669,123683.181,125183.211,,white
,Trial,flow.Sequence,3_29_0,2022-03-01T10:38:22.804Z,,,,1,VA,3250.064999999988,completion,,125181.80000001192,125166.544,121899.812,121886.69999998808,121916.479,125183.211,,white
,Frame,canvas.Frame,3_29,2022-03-01T10:38:22.804Z,,,,1,VA,3265.4209999761515,,,125181.89999997616,125181.89999997616,121899.812,121886,121916.479,125199.878,,white
,Fixation,canvas.Screen,3_30_0_0,2022-03-01T10:38:24.459Z,,,,0,V,1650.0329999999958,timeout,,126836.10000002384,126833.244,125183.211,125183.60000002384,125199.878,126849.911,,white
,Stimulus,canvas.Screen,3_30_0_1,2022-03-01T10:38:24.557Z,,,,0,V,100.00200000000768,timeout,,126934.80000001192,126933.246,126833.244,126836.39999997616,126849.911,126949.913,,white
,Reaction,canvas.Screen,3_30_0_2,2022-03-01T10:38:26.058Z,,,,0,V,1500.0299999999988,timeout,,128435.30000001192,128433.276,126933.246,126935,126949.913,128449.943,,white
,Trial,flow.Sequence,3_30_0,2022-03-01T10:38:26.059Z,,,,0,V,3233.398000000001,completion,,128436.39999997616,128433.276,125183.211,125183.5,125199.878,128449.943,,white
,Frame,canvas.Frame,3_30,2022-03-01T10:38:26.059Z,,,,0,V,3236.622000000003,,,128436.69999998808,128436.5,125183.211,125181.89999997616,125199.878,128466.61,,white
,Fixation,canvas.Screen,3_31_0_0,2022-03-01T10:38:27.875Z,,,,1,VA,1800.0359999999928,timeout,,130252.30000001192,130249.979,128449.943,128438.19999998808,128466.61,130266.646,,white
,Stimulus,canvas.Screen,3_31_0_1,2022-03-01T10:38:27.975Z,,,,1,VA,100.00200000000768,timeout,,130352.60000002384,130349.981,130249.979,130252.39999997616,130266.646,130366.648,,white
,Reaction,canvas.Screen,3_31_0_2,2022-03-01T10:38:29.475Z,,,,1,VA,1500.0300000000134,timeout,,131852.60000002384,131850.011,130349.981,130352.69999998808,130366.648,131866.678,,white
,Trial,flow.Sequence,3_31_0,2022-03-01T10:38:29.475Z,,,,1,VA,3383.400999999998,completion,,131852.89999997616,131850.011,128449.943,128438.19999998808,128466.61,131866.678,,white
,Frame,canvas.Frame,3_31,2022-03-01T10:38:29.476Z,,,,1,VA,3386.3899999999994,,,131853,131853,128449.943,128436.80000001192,128466.61,131883.345,,white
,Fixation,canvas.Screen,3_32_0_0,2022-03-01T10:38:31.941Z,,,,0,V,2450.048999999999,timeout,,134318.10000002384,134316.727,131866.678,131854.10000002384,131883.345,134333.394,,white
,Stimulus,canvas.Screen,3_32_0_1,2022-03-01T10:38:32.041Z,,,,0,V,100.00200000000768,timeout,,134417.89999997616,134416.729,134316.727,134318.19999998808,134333.394,134433.396,,white
,Reaction,canvas.Screen,3_32_0_2,2022-03-01T10:38:33.541Z,,,,0,V,1500.0299999999988,timeout,,135917.69999998808,135916.759,134416.729,134418,134433.396,135933.426,,white
,Trial,flow.Sequence,3_32_0,2022-03-01T10:38:33.541Z,,,,0,V,4033.4139999999898,completion,,135917.89999997616,135916.759,131866.678,131854,131883.345,135933.426,,white
,Frame,canvas.Frame,3_32,2022-03-01T10:38:33.541Z,,,,0,V,4034.654999999999,,,135918.10000002384,135918,131866.678,131853.19999998808,131883.345,135950.093,,white
,Fixation,canvas.Screen,3_33_0_0,2022-03-01T10:38:35.158Z,,,,0,V,1600.0320000000065,timeout,,137534.89999997616,137533.458,135933.426,135918.89999997616,135950.093,137550.125,,white
,Stimulus,canvas.Screen,3_33_0_1,2022-03-01T10:38:35.258Z,,,,0,V,100.00200000000768,timeout,,137635.5,137633.46,137533.458,137535.10000002384,137550.125,137650.127,,white
,Reaction,canvas.Screen,3_33_0_2,2022-03-01T10:38:36.758Z,,,,0,V,1500.0299999999988,timeout,,139135.10000002384,139133.49,137633.46,137635.69999998808,137650.127,139150.157,,white
,Trial,flow.Sequence,3_33_0,2022-03-01T10:38:36.758Z,,,,0,V,3183.396999999997,completion,,139135.39999997616,139133.49,135933.426,135918.80000001192,135950.093,139150.157,,white
,Frame,canvas.Frame,3_33,2022-03-01T10:38:36.759Z,,,,0,V,3185.4070000000065,,,139135.69999998808,139135.5,135933.426,135918.19999998808,135950.093,139166.824,,white
,Fixation,canvas.Screen,3_34_0_0,2022-03-01T10:38:38.375Z,,,,1,VA,1600.0320000000065,timeout,,140752.30000001192,140750.189,139150.157,139136.69999998808,139166.824,140766.856,,white
,Stimulus,canvas.Screen,3_34_0_1,2022-03-01T10:38:38.475Z,,,,1,VA,100.00200000000768,timeout,,140852.19999998808,140850.191,140750.189,140752.60000002384,140766.856,140866.858,,white
,Reaction,canvas.Screen,3_34_0_2,2022-03-01T10:38:39.975Z,,,,1,VA,1500.0299999999988,timeout,,142351.69999998808,142350.221,140850.191,140852.39999997616,140866.858,142366.888,,white
,Trial,flow.Sequence,3_34_0,2022-03-01T10:38:39.975Z,,,,1,VA,3183.396999999997,completion,,142352,142350.221,139150.157,139136.60000002384,139166.824,142366.888,,white
,Frame,canvas.Frame,3_34,2022-03-01T10:38:39.975Z,,,,1,VA,3185.1760000000068,,,142352,142352,139150.157,139135.80000001192,139166.824,142383.555,,white
,Fixation,canvas.Screen,3_35_0_0,2022-03-01T10:38:42.492Z,,,,1,A,2500.0500000000175,timeout,,144869.10000002384,144866.938,142366.888,142352.80000001192,142383.555,144883.605,,grey
,Stimulus,canvas.Screen,3_35_0_1,2022-03-01T10:38:42.591Z,,,,1,A,100.00199999997858,timeout,,144967.89999997616,144966.94,144866.938,144869.39999997616,144883.605,144983.607,,grey
,Reaction,canvas.Screen,3_35_0_2,2022-03-01T10:38:44.091Z,,,,1,A,1500.0299999999988,timeout,,146468.30000001192,146466.97,144966.94,144968.10000002384,144983.607,146483.637,,grey
,Trial,flow.Sequence,3_35_0,2022-03-01T10:38:44.092Z,,,,1,A,4083.415000000008,completion,,146468.60000002384,146466.97,142366.888,142352.80000001192,142383.555,146483.637,,grey
,Frame,canvas.Frame,3_35,2022-03-01T10:38:44.092Z,,,,1,A,4085.144999988086,,,146468.80000001192,146468.69999998808,142366.888,142352.10000002384,142383.555,146500.304,,grey
,Fixation,canvas.Screen,3_36_0_0,2022-03-01T10:38:46.609Z,,,,1,A,2500.0499999999884,timeout,,148985.39999997616,148983.687,146483.637,146469.69999998808,146500.304,149000.354,,grey
,Stimulus,canvas.Screen,3_36_0_1,2022-03-01T10:38:46.709Z,,,,1,A,100.00200000000768,timeout,,149085.69999998808,149083.689,148983.687,148985.69999998808,149000.354,149100.356,,grey
,Reaction,canvas.Screen,3_36_0_2,2022-03-01T10:38:48.208Z,,,,1,A,1500.0299999999988,timeout,,150584.69999998808,150583.719,149083.689,149085.89999997616,149100.356,150600.386,,grey
,Trial,flow.Sequence,3_36_0,2022-03-01T10:38:48.208Z,,,,1,A,4083.415000000008,completion,,150585.19999998808,150583.719,146483.637,146469.69999998808,146500.304,150600.386,,grey
,Frame,canvas.Frame,3_36,2022-03-01T10:38:48.209Z,,,,1,A,4085.0959999761544,,,150585.5,150585.39999997616,146483.637,146468.80000001192,146500.304,150633.72,,grey
,Fixation,canvas.Screen,3_37_0_0,2022-03-01T10:38:50.270Z,,,,0,V,2016.7069999999949,timeout,,152646.69999998808,152633.76,150600.386,150586.30000001192,150633.72,152650.427,,white
,Stimulus,canvas.Screen,3_37_0_1,2022-03-01T10:38:50.359Z,,,,0,V,100.00200000000768,timeout,,152736.10000002384,152733.762,152633.76,152646.80000001192,152650.427,152750.429,,white
,Reaction,canvas.Screen,3_37_0_2,2022-03-01T10:38:51.859Z,,,,0,V,1500.0299999999988,timeout,,154235.89999997616,154233.792,152733.762,152736.19999998808,152750.429,154250.459,,white
,Trial,flow.Sequence,3_37_0,2022-03-01T10:38:51.859Z,,,,0,V,3600.0719999999856,completion,,154236.19999998808,154233.792,150600.386,150586.30000001192,150633.72,154250.459,,white
,Frame,canvas.Frame,3_37,2022-03-01T10:38:51.860Z,,,,0,V,3602.479999988078,,,154236.30000001192,154236.19999998808,150600.386,150585.69999998808,150633.72,154267.126,,white
,Fixation,canvas.Screen,3_38_0_0,2022-03-01T10:38:53.804Z,,,,1,A,1916.7050000000163,timeout,,156181,156167.164,154250.459,154237.19999998808,154267.126,156183.831,,grey
,Stimulus,canvas.Screen,3_38_0_1,2022-03-01T10:38:53.892Z,,,,1,A,100.00200000000768,timeout,,156268.5,156267.166,156167.164,156181.19999998808,156183.831,156283.833,,grey
,Reaction,canvas.Screen,3_38_0_2,2022-03-01T10:38:55.393Z,,,,1,A,1500.0299999999988,timeout,,157769.60000002384,157767.196,156267.166,156268.60000002384,156283.833,157783.863,,grey
,Trial,flow.Sequence,3_38_0,2022-03-01T10:38:55.394Z,,,,1,A,3500.070000000007,completion,,157770.19999998808,157767.196,154250.459,154237.10000002384,154267.126,157783.863,,grey
,Frame,canvas.Frame,3_38,2022-03-01T10:38:55.394Z,,,,1,A,3503.1740000119316,,,157770.80000001192,157770.30000001192,154250.459,154236.5,154267.126,157800.53,,grey
,Fixation,canvas.Screen,3_39_0_0,2022-03-01T10:38:56.976Z,,,,0,V,1566.698000000004,timeout,,159353,159350.561,157783.863,157771.39999997616,157800.53,159367.228,,white
,Stimulus,canvas.Screen,3_39_0_1,2022-03-01T10:38:57.076Z,,,,0,V,100.00200000000768,timeout,,159452.69999998808,159450.563,159350.561,159353.19999998808,159367.228,159467.23,,white
,Reaction,canvas.Screen,3_39_0_2,2022-03-01T10:38:58.576Z,,,,0,V,1500.0299999999988,timeout,,160952.30000001192,160950.593,159450.563,159452.89999997616,159467.23,160967.26,,white
,Trial,flow.Sequence,3_39_0,2022-03-01T10:38:58.576Z,,,,0,V,3150.0629999999946,completion,,160952.60000002384,160950.593,157783.863,157771.30000001192,157800.53,160967.26,,white
,Frame,canvas.Frame,3_39,2022-03-01T10:38:58.576Z,,,,0,V,3152.1699999880802,,,160952.89999997616,160952.69999998808,157783.863,157771,157800.53,160983.927,,white
,Fixation,canvas.Screen,3_40_0_0,2022-03-01T10:39:00.976Z,,,,1,VA,2383.380999999994,timeout,,163352.69999998808,163350.641,160967.26,160953.80000001192,160983.927,163367.308,,white
,Stimulus,canvas.Screen,3_40_0_1,2022-03-01T10:39:01.077Z,,,,1,VA,100.00200000000768,timeout,,163453.39999997616,163450.643,163350.641,163352.89999997616,163367.308,163467.31,,white
,Reaction,canvas.Screen,3_40_0_2,2022-03-01T10:39:02.578Z,,,,1,VA,1500.0299999999988,timeout,,164954.5,164950.673,163450.643,163453.69999998808,163467.31,164967.34,,white
,Trial,flow.Sequence,3_40_0,2022-03-01T10:39:02.578Z,,,,1,VA,3966.7460000000137,completion,,164954.80000001192,164950.673,160967.26,160953.80000001192,160983.927,164967.34,,white
,Frame,canvas.Frame,3_40,2022-03-01T10:39:02.579Z,,,,1,VA,3970.972999976162,,,164955,164954.89999997616,160967.26,160953,160983.927,165017.341,,white
,Fixation,canvas.Screen,3_41_0_0,2022-03-01T10:39:04.394Z,,,,1,VA,1766.7020000000193,timeout,,166769.89999997616,166767.376,164967.34,164956.69999998808,165017.341,166784.043,,white
,Stimulus,canvas.Screen,3_41_0_1,2022-03-01T10:39:04.494Z,,,,1,VA,100.00200000000768,timeout,,166870.69999998808,166867.378,166767.376,166770.10000002384,166784.043,166884.045,,white
,Reaction,canvas.Screen,3_41_0_2,2022-03-01T10:39:05.993Z,,,,1,VA,1500.0299999999988,timeout,,168369.10000002384,168367.408,166867.378,166871.39999997616,166884.045,168384.075,,white
,Trial,flow.Sequence,3_41_0,2022-03-01T10:39:05.993Z,,,,1,VA,3350.06700000001,completion,,168369.30000001192,168367.408,164967.34,164956.5,165017.341,168384.075,,white
,Frame,canvas.Frame,3_41,2022-03-01T10:39:05.993Z,,,,1,VA,3352.0589999761723,,,168369.5,168369.39999997616,164967.34,164955.10000002384,165017.341,168400.742,,white
,Fixation,canvas.Screen,3_42_0_0,2022-03-01T10:39:07.710Z,,,,1,A,1700.0340000000142,timeout,,170085.89999997616,170084.109,168384.075,168370.30000001192,168400.742,170100.776,,grey
,Stimulus,canvas.Screen,3_42_0_1,2022-03-01T10:39:07.810Z,,,,1,A,100.00199999997858,timeout,,170186,170184.111,170084.109,170086.10000002384,170100.776,170200.778,,grey
,Reaction,canvas.Screen,3_42_0_2,2022-03-01T10:39:09.311Z,,,,1,A,1500.0299999999988,timeout,,171686.80000001192,171684.141,170184.111,170186.19999998808,170200.778,171700.808,,grey
,Trial,flow.Sequence,3_42_0,2022-03-01T10:39:09.311Z,,,,1,A,3283.399000000005,completion,,171687,171684.141,168384.075,168370.30000001192,168400.742,171700.808,,grey
,Frame,canvas.Frame,3_42,2022-03-01T10:39:09.311Z,,,,1,A,3286.2580000000016,,,171687.10000002384,171687,168384.075,168369.60000002384,168400.742,171717.475,,grey
,Fixation,canvas.Screen,3_43_0_0,2022-03-01T10:39:10.827Z,,,,1,VA,1500.0299999999988,timeout,,173202.89999997616,173200.838,171700.808,171687.80000001192,171717.475,173217.505,,white
,Stimulus,canvas.Screen,3_43_0_1,2022-03-01T10:39:10.927Z,,,,1,VA,100.00200000000768,timeout,,173302.89999997616,173300.84,173200.838,173203,173217.505,173317.507,,white
,Reaction,canvas.Screen,3_43_0_2,2022-03-01T10:39:12.426Z,,,,1,VA,1500.0299999999988,timeout,,174802.5,174800.87,173300.84,173303.80000001192,173317.507,174817.537,,white
,Trial,flow.Sequence,3_43_0,2022-03-01T10:39:12.427Z,,,,1,VA,3083.3949999999895,completion,,174802.80000001192,174800.87,171700.808,171687.80000001192,171717.475,174817.537,,white
,Frame,canvas.Frame,3_43,2022-03-01T10:39:12.427Z,,,,1,VA,3085.325000011915,,,174803,174802.80000001192,171700.808,171687.19999998808,171717.475,174834.204,,white
,Fixation,canvas.Screen,3_44_0_0,2022-03-01T10:39:14.210Z,,,,1,A,1766.7019999999902,timeout,,176586.60000002384,176584.239,174817.537,174803.89999997616,174834.204,176600.906,,grey
,Stimulus,canvas.Screen,3_44_0_1,2022-03-01T10:39:14.310Z,,,,1,A,100.00200000000768,timeout,,176686.19999998808,176684.241,176584.239,176586.80000001192,176600.906,176700.908,,grey
,Reaction,canvas.Screen,3_44_0_2,2022-03-01T10:39:15.809Z,,,,1,A,1500.0299999999988,timeout,,178185.5,178184.271,176684.241,176686.30000001192,176700.908,178200.938,,grey
,Trial,flow.Sequence,3_44_0,2022-03-01T10:39:15.810Z,,,,1,A,3350.06700000001,completion,,178185.80000001192,178184.271,174817.537,174803.89999997616,174834.204,178200.938,,grey
,Frame,canvas.Frame,3_44,2022-03-01T10:39:15.810Z,,,,1,A,3351.6959999761602,,,178185.89999997616,178185.89999997616,174817.537,174803.10000002384,174834.204,178217.605,,grey
,Fixation,canvas.Screen,3_45_0_0,2022-03-01T10:39:17.843Z,,,,1,A,2016.7069999999949,timeout,,180218.80000001192,180217.645,178200.938,178186.5,178217.605,180234.312,,grey
,Stimulus,canvas.Screen,3_45_0_1,2022-03-01T10:39:17.946Z,,,,1,A,100.00200000000768,timeout,,180322.10000002384,180317.647,180217.645,180219,180234.312,180334.314,,grey
,Reaction,canvas.Screen,3_45_0_2,2022-03-01T10:39:19.444Z,,,,1,A,1500.0299999999988,timeout,,181819.60000002384,181817.677,180317.647,180322.19999998808,180334.314,181834.344,,grey
,Trial,flow.Sequence,3_45_0,2022-03-01T10:39:19.444Z,,,,1,A,3600.0719999999856,completion,,181819.89999997616,181817.677,178200.938,178186.5,178217.605,181834.344,,grey
,Frame,canvas.Frame,3_45,2022-03-01T10:39:19.444Z,,,,1,A,3602.2949999761477,,,181820.19999998808,181819.89999997616,178200.938,178186,178217.605,181851.011,,grey
,Fixation,canvas.Screen,3_46_0_0,2022-03-01T10:39:21.444Z,,,,1,VA,1983.3729999999923,timeout,,183820.39999997616,183817.717,181834.344,181821.10000002384,181851.011,183834.384,,white
,Stimulus,canvas.Screen,3_46_0_1,2022-03-01T10:39:21.544Z,,,,1,VA,100.00200000000768,timeout,,183919.89999997616,183917.719,183817.717,183820.5,183834.384,183934.386,,white
,Reaction,canvas.Screen,3_46_0_2,2022-03-01T10:39:23.043Z,,,,1,VA,1500.0299999999988,timeout,,185419.19999998808,185417.749,183917.719,183920,183934.386,185434.416,,white
,Trial,flow.Sequence,3_46_0,2022-03-01T10:39:23.044Z,,,,1,VA,3566.738000000012,completion,,185419.5,185417.749,181834.344,181821.10000002384,181851.011,185434.416,,white
,Frame,canvas.Frame,3_46,2022-03-01T10:39:23.044Z,,,,1,VA,3568.6889999880805,,,185419.80000001192,185419.69999998808,181834.344,181820.30000001192,181851.011,185451.083,,white
,Fixation,canvas.Screen,3_47_0_0,2022-03-01T10:39:24.611Z,,,,1,A,1550.0309999999881,timeout,,186986.5,186984.447,185434.416,185420.80000001192,185451.083,187001.114,,grey
,Stimulus,canvas.Screen,3_47_0_1,2022-03-01T10:39:24.710Z,,,,1,A,100.00200000000768,timeout,,187085.60000002384,187084.449,186984.447,186986.69999998808,187001.114,187101.116,,grey
,Reaction,canvas.Screen,3_47_0_2,2022-03-01T10:39:26.211Z,,,,1,A,1500.0299999999988,timeout,,188586.60000002384,188584.479,187084.449,187085.80000001192,187101.116,188601.146,,grey
,Trial,flow.Sequence,3_47_0,2022-03-01T10:39:26.211Z,,,,1,A,3133.395999999979,completion,,188586.89999997616,188584.479,185434.416,185420.69999998808,185451.083,188601.146,,grey
,Frame,canvas.Frame,3_47,2022-03-01T10:39:26.211Z,,,,1,A,3135.9169999999867,,,188587.10000002384,188587,185434.416,185419.89999997616,185451.083,188617.813,,grey
,Fixation,canvas.Screen,3_48_0_0,2022-03-01T10:39:28.245Z,,,,0,V,2016.7069999999949,timeout,,190620.60000002384,190617.853,188601.146,188588,188617.813,190634.52,,white
,Stimulus,canvas.Screen,3_48_0_1,2022-03-01T10:39:28.344Z,,,,0,V,100.00200000000768,timeout,,190720.19999998808,190717.855,190617.853,190620.80000001192,190634.52,190734.522,,white
,Reaction,canvas.Screen,3_48_0_2,2022-03-01T10:39:29.844Z,,,,0,V,1500.0299999999988,timeout,,192220.10000002384,192217.885,190717.855,190720.39999997616,190734.522,192234.552,,white
,Trial,flow.Sequence,3_48_0,2022-03-01T10:39:29.845Z,,,,0,V,3600.0720000000147,completion,,192220.30000001192,192217.885,188601.146,188587.89999997616,188617.813,192234.552,,white
,Frame,canvas.Frame,3_48,2022-03-01T10:39:29.845Z,,,,0,V,3602.5869999761635,,,192220.5,192220.39999997616,188601.146,188587.19999998808,188617.813,192251.219,,white
,Fixation,canvas.Screen,3_49_0_0,2022-03-01T10:39:31.844Z,,,,0,V,1983.3729999999923,timeout,,194219.89999997616,194217.925,192234.552,192221.69999998808,192251.219,194234.592,,white
,Stimulus,canvas.Screen,3_49_0_1,2022-03-01T10:39:31.944Z,,,,0,V,100.00200000000768,timeout,,194320,194317.927,194217.925,194220.10000002384,194234.592,194334.594,,white
,Reaction,canvas.Screen,3_49_0_2,2022-03-01T10:39:33.446Z,,,,0,V,1500.0299999999988,timeout,,195821.80000001192,195817.957,194317.927,194320.19999998808,194334.594,195834.624,,white
,Trial,flow.Sequence,3_49_0,2022-03-01T10:39:33.446Z,,,,0,V,3566.737999999983,completion,,195821.89999997616,195817.957,192234.552,192221.5,192251.219,195834.624,,white
,Frame,canvas.Frame,3_49,2022-03-01T10:39:33.446Z,,,,0,V,3570.6809999761463,,,195822,195821.89999997616,192234.552,192220.69999998808,192251.219,195851.291,,white
,Fixation,canvas.Screen,3_50_0_0,2022-03-01T10:39:35.129Z,,,,1,A,1666.7000000000116,timeout,,197504.69999998808,197501.324,195834.624,195822.60000002384,195851.291,197517.991,,grey
,Stimulus,canvas.Screen,3_50_0_1,2022-03-01T10:39:35.228Z,,,,1,A,100.00199999997858,timeout,,197603.19999998808,197601.326,197501.324,197504.80000001192,197517.991,197617.993,,grey
,Reaction,canvas.Screen,3_50_0_2,2022-03-01T10:39:36.734Z,,,,1,A,1500.0299999999988,timeout,,199109.10000002384,199101.356,197601.326,197603.30000001192,197617.993,199118.023,,grey
,Trial,flow.Sequence,3_50_0,2022-03-01T10:39:36.734Z,,,,1,A,3250.0650000000023,completion,,199109.19999998808,199101.356,195834.624,195822.60000002384,195851.291,199118.023,,grey
,Frame,canvas.Frame,3_50,2022-03-01T10:39:36.734Z,,,,1,A,3258.0090000119235,,,199109.30000001192,199109.30000001192,195834.624,195822.10000002384,195851.291,199134.69,,grey
,Fixation,canvas.Screen,3_51_0_0,2022-03-01T10:39:38.745Z,,,,1,A,2000.0400000000081,timeout,,201120.60000002384,201118.063,199118.023,199109.89999997616,199134.69,201134.73,,grey
,Stimulus,canvas.Screen,3_51_0_1,2022-03-01T10:39:38.846Z,,,,1,A,100.00199999997858,timeout,,201221.10000002384,201218.065,201118.063,201120.89999997616,201134.73,201234.732,,grey
,Reaction,canvas.Screen,3_51_0_2,2022-03-01T10:39:40.344Z,,,,1,A,1500.0299999999988,timeout,,202719,202718.095,201218.065,201221.80000001192,201234.732,202734.762,,grey
,Trial,flow.Sequence,3_51_0,2022-03-01T10:39:40.344Z,,,,1,A,3583.404999999999,completion,,202719.19999998808,202718.095,199118.023,199109.89999997616,199134.69,202734.762,,grey
,Frame,canvas.Frame,3_51,2022-03-01T10:39:40.344Z,,,,1,A,3584.5099999880767,,,202719.39999997616,202719.19999998808,199118.023,199109.5,199134.69,202751.429,,grey
,Fixation,canvas.Screen,3_52_0_0,2022-03-01T10:39:42.227Z,,,,1,A,1866.703999999998,timeout,,204602.69999998808,204601.466,202734.762,202719.89999997616,202751.429,204618.133,,grey
,Stimulus,canvas.Screen,3_52_0_1,2022-03-01T10:39:42.329Z,,,,1,A,100.00200000000768,timeout,,204704.30000001192,204701.468,204601.466,204602.80000001192,204618.133,204718.135,,grey
,Reaction,canvas.Screen,3_52_0_2,2022-03-01T10:39:43.829Z,,,,1,A,1500.0299999999988,timeout,,206204.19999998808,206201.498,204701.468,204704.69999998808,204718.135,206218.165,,grey
,Trial,flow.Sequence,3_52_0,2022-03-01T10:39:43.829Z,,,,1,A,3450.0689999999886,completion,,206204.5,206201.498,202734.762,202719.89999997616,202751.429,206218.165,,grey
,Frame,canvas.Frame,3_52,2022-03-01T10:39:43.829Z,,,,1,A,3453.171000023838,,,206204.60000002384,206204.60000002384,202734.762,202719.39999997616,202751.429,206234.832,,grey
,Fixation,canvas.Screen,3_53_0_0,2022-03-01T10:39:45.745Z,,,,1,VA,1900.0380000000005,timeout,,208120.30000001192,208118.203,206218.165,206205.19999998808,206234.832,208134.87,,white
,Stimulus,canvas.Screen,3_53_0_1,2022-03-01T10:39:45.845Z,,,,1,VA,100.00200000000768,timeout,,208220.19999998808,208218.205,208118.203,208120.5,208134.87,208234.872,,white
,Reaction,canvas.Screen,3_53_0_2,2022-03-01T10:39:47.344Z,,,,1,VA,1500.0299999999988,timeout,,209719.39999997616,209718.235,208218.205,208220.39999997616,208234.872,209734.902,,white
,Trial,flow.Sequence,3_53_0,2022-03-01T10:39:47.344Z,,,,1,VA,3483.402999999991,completion,,209719.69999998808,209718.235,206218.165,206205.19999998808,206234.832,209734.902,,white
,Frame,canvas.Frame,3_53,2022-03-01T10:39:47.345Z,,,,1,VA,3484.867999988084,,,209719.80000001192,209719.69999998808,206218.165,206204.69999998808,206234.832,209751.569,,white
,Fixation,canvas.Screen,3_54_0_0,2022-03-01T10:39:49.445Z,,,,0,V,2083.375,timeout,,211819.69999998808,211818.277,209734.902,209720.69999998808,209751.569,211834.944,,white
,Stimulus,canvas.Screen,3_54_0_1,2022-03-01T10:39:49.545Z,,,,0,V,100.00200000000768,timeout,,211920.69999998808,211918.279,211818.277,211819.89999997616,211834.944,211934.946,,white
,Reaction,canvas.Screen,3_54_0_2,2022-03-01T10:39:51.046Z,,,,0,V,1500.0299999999988,timeout,,213420.80000001192,213418.309,211918.279,211920.80000001192,211934.946,213434.976,,white
,Trial,flow.Sequence,3_54_0,2022-03-01T10:39:51.046Z,,,,0,V,3666.74000000002,completion,,213421.30000001192,213418.309,209734.902,209720.69999998808,209751.569,213434.976,,white
,Frame,canvas.Frame,3_54,2022-03-01T10:39:51.046Z,,,,0,V,3669.8309999761696,,,213421.39999997616,213421.39999997616,209734.902,209720,209751.569,213451.643,,white
,Fixation,canvas.Screen,3_55_0_0,2022-03-01T10:39:52.644Z,,,,1,A,1583.3649999999907,timeout,,215019.5,215018.341,213434.976,213422.5,213451.643,215035.008,,grey
,Stimulus,canvas.Screen,3_55_0_1,2022-03-01T10:39:52.744Z,,,,1,A,100.00200000000768,timeout,,215119.19999998808,215118.343,215018.341,215019.69999998808,215035.008,215135.01,,grey
,Reaction,canvas.Screen,3_55_0_2,2022-03-01T10:39:54.245Z,,,,1,A,1500.0299999999988,timeout,,216620.30000001192,216618.373,215118.343,215119.39999997616,215135.01,216635.04,,grey
,Trial,flow.Sequence,3_55_0,2022-03-01T10:39:54.246Z,,,,1,A,3166.7299999999814,completion,,216620.60000002384,216618.373,213434.976,213422.39999997616,213451.643,216635.04,,grey
,Frame,canvas.Frame,3_55,2022-03-01T10:39:54.246Z,,,,1,A,3168.957000023831,,,216620.80000001192,216620.60000002384,213434.976,213421.5,213451.643,216651.707,,grey
,Fixation,canvas.Screen,3_56_0_0,2022-03-01T10:39:56.078Z,,,,1,VA,1816.7030000000086,timeout,,218453.19999998808,218451.743,216635.04,216621.69999998808,216651.707,218468.41,,white
,Stimulus,canvas.Screen,3_56_0_1,2022-03-01T10:39:56.179Z,,,,1,VA,100.00200000000768,timeout,,218553.60000002384,218551.745,218451.743,218453.5,218468.41,218568.412,,white
,Reaction,canvas.Screen,3_56_0_2,2022-03-01T10:39:57.679Z,,,,1,VA,1500.0299999999988,timeout,,220053.60000002384,220051.775,218551.745,218553.69999998808,218568.412,220068.442,,white
,Trial,flow.Sequence,3_56_0,2022-03-01T10:39:57.679Z,,,,1,VA,3400.0679999999993,completion,,220053.80000001192,220051.775,216635.04,216621.69999998808,216651.707,220068.442,,white
,Frame,canvas.Frame,3_56,2022-03-01T10:39:57.679Z,,,,1,VA,3402.1929999761633,,,220054.10000002384,220053.89999997616,216635.04,216620.89999997616,216651.707,220085.109,,white
,Fixation,canvas.Screen,3_57_0_0,2022-03-01T10:39:59.280Z,,,,0,V,1583.3649999999907,timeout,,221655.30000001192,221651.807,220068.442,220055.10000002384,220085.109,221668.474,,white
,Stimulus,canvas.Screen,3_57_0_1,2022-03-01T10:39:59.378Z,,,,0,V,100.00200000000768,timeout,,221753.19999998808,221751.809,221651.807,221655.60000002384,221668.474,221768.476,,white
,Reaction,canvas.Screen,3_57_0_2,2022-03-01T10:40:00.879Z,,,,0,V,1500.0299999999988,timeout,,223253.69999998808,223251.839,221751.809,221753.30000001192,221768.476,223268.506,,white
,Trial,flow.Sequence,3_57_0,2022-03-01T10:40:00.879Z,,,,0,V,3166.7300000000105,completion,,223254,223251.839,220068.442,220055,220085.109,223268.506,,white
,Frame,canvas.Frame,3_57,2022-03-01T10:40:00.879Z,,,,0,V,3168.991000023845,,,223254.19999998808,223254.10000002384,220068.442,220054.19999998808,220085.109,223285.173,,white
,Fixation,canvas.Screen,3_58_0_0,2022-03-01T10:40:02.679Z,,,,1,A,1783.368999999977,timeout,,225054.10000002384,225051.875,223268.506,223255.39999997616,223285.173,225068.542,,grey
,Stimulus,canvas.Screen,3_58_0_1,2022-03-01T10:40:02.779Z,,,,1,A,100.00200000000768,timeout,,225153.80000001192,225151.877,225051.875,225054.30000001192,225068.542,225168.544,,grey
,Reaction,canvas.Screen,3_58_0_2,2022-03-01T10:40:04.280Z,,,,1,A,1500.0299999999988,timeout,,226654.39999997616,226651.907,225151.877,225154,225168.544,226668.574,,grey
,Trial,flow.Sequence,3_58_0,2022-03-01T10:40:04.280Z,,,,1,A,3366.7339999999967,completion,,226654.69999998808,226651.907,223268.506,223255.30000001192,223285.173,226668.574,,grey
,Frame,canvas.Frame,3_58,2022-03-01T10:40:04.280Z,,,,1,A,3369.5269999880693,,,226654.89999997616,226654.69999998808,223268.506,223254.30000001192,223285.173,226685.241,,grey
,Fixation,canvas.Screen,3_59_0_0,2022-03-01T10:40:06.480Z,,,,0,V,2183.3769999999786,timeout,,228854.39999997616,228851.951,226668.574,226655.89999997616,226685.241,228868.618,,white
,Stimulus,canvas.Screen,3_59_0_1,2022-03-01T10:40:06.582Z,,,,0,V,100.00200000000768,timeout,,228956.39999997616,228951.953,228851.951,228854.5,228868.618,228968.62,,white
,Reaction,canvas.Screen,3_59_0_2,2022-03-01T10:40:08.084Z,,,,0,V,1500.0299999999988,timeout,,230458.89999997616,230451.983,228951.953,228956.60000002384,228968.62,230468.65,,white
,Trial,flow.Sequence,3_59_0,2022-03-01T10:40:08.085Z,,,,0,V,3766.7419999999984,completion,,230459.10000002384,230451.983,226668.574,226655.80000001192,226685.241,230468.65,,white
,Frame,canvas.Frame,3_59,2022-03-01T10:40:08.085Z,,,,0,V,3774.059000011912,,,230459.60000002384,230459.30000001192,226668.574,226655,226685.241,230485.317,,white
,Fixation,canvas.Screen,3_60_0_0,2022-03-01T10:40:09.747Z,,,,1,VA,1650.0329999999958,timeout,,232121.89999997616,232118.683,230468.65,230460.89999997616,230485.317,232135.35,,white
,Stimulus,canvas.Screen,3_60_0_1,2022-03-01T10:40:09.848Z,,,,1,VA,100.00200000000768,timeout,,232223,232218.685,232118.683,232122.10000002384,232135.35,232235.352,,white
,Reaction,canvas.Screen,3_60_0_2,2022-03-01T10:40:11.346Z,,,,1,VA,1500.0299999999988,timeout,,233720.60000002384,233718.715,232218.685,232223.30000001192,232235.352,233735.382,,white
,Trial,flow.Sequence,3_60_0,2022-03-01T10:40:11.346Z,,,,1,VA,3233.3979999999865,completion,,233720.69999998808,233718.715,230468.65,230460.80000001192,230485.317,233735.382,,white
,Frame,canvas.Frame,3_60,2022-03-01T10:40:11.346Z,,,,1,VA,3235.483000011911,,,233720.80000001192,233720.80000001192,230468.65,230459.69999998808,230485.317,233752.049,,white
,Fixation,canvas.Screen,3_61_0_0,2022-03-01T10:40:13.713Z,,,,1,A,2350.0469999999914,timeout,,236087.60000002384,236085.429,233735.382,233721.60000002384,233752.049,236102.096,,grey
,Stimulus,canvas.Screen,3_61_0_1,2022-03-01T10:40:13.813Z,,,,1,A,100.00200000000768,timeout,,236187.80000001192,236185.431,236085.429,236087.80000001192,236102.096,236202.098,,grey
,Reaction,canvas.Screen,3_61_0_2,2022-03-01T10:40:15.313Z,,,,1,A,1500.0299999999988,timeout,,237687.19999998808,237685.461,236185.431,236188,236202.098,237702.128,,grey
,Trial,flow.Sequence,3_61_0,2022-03-01T10:40:15.313Z,,,,1,A,3933.412000000011,completion,,237687.39999997616,237685.461,233735.382,233721.60000002384,233752.049,237702.128,,grey
,Frame,canvas.Frame,3_61,2022-03-01T10:40:15.313Z,,,,1,A,3935.350999976159,,,237687.5,237687.39999997616,233735.382,233720.89999997616,233752.049,237718.795,,grey
,Fixation,canvas.Screen,3_62_0_0,2022-03-01T10:40:17.429Z,,,,1,VA,2100.0419999999867,timeout,,239803.60000002384,239802.17,237702.128,237688,237718.795,239818.837,,white
,Stimulus,canvas.Screen,3_62_0_1,2022-03-01T10:40:17.530Z,,,,1,VA,100.00200000000768,timeout,,239904.10000002384,239902.172,239802.17,239803.80000001192,239818.837,239918.839,,white
,Reaction,canvas.Screen,3_62_0_2,2022-03-01T10:40:19.029Z,,,,1,VA,1500.0299999999988,timeout,,241403.80000001192,241402.202,239902.172,239904.19999998808,239918.839,241418.869,,white
,Trial,flow.Sequence,3_62_0,2022-03-01T10:40:19.030Z,,,,1,VA,3683.4069999999774,completion,,241404,241402.202,237702.128,237688,237718.795,241418.869,,white
,Frame,canvas.Frame,3_62,2022-03-01T10:40:19.030Z,,,,1,VA,3685.305000023829,,,241404.10000002384,241404.10000002384,237702.128,237687.60000002384,237718.795,241435.536,,white
,Fixation,canvas.Screen,3_63_0_0,2022-03-01T10:40:20.663Z,,,,1,VA,1616.6989999999932,timeout,,243037.60000002384,243035.568,241418.869,241404.89999997616,241435.536,243052.235,,white
,Stimulus,canvas.Screen,3_63_0_1,2022-03-01T10:40:20.763Z,,,,1,VA,100.00200000000768,timeout,,243137.80000001192,243135.57,243035.568,243037.69999998808,243052.235,243152.237,,white
,Reaction,canvas.Screen,3_63_0_2,2022-03-01T10:40:22.263Z,,,,1,VA,1500.0299999999988,timeout,,244637.19999998808,244635.6,243135.57,243138,243152.237,244652.267,,white
,Trial,flow.Sequence,3_63_0,2022-03-01T10:40:22.263Z,,,,1,VA,3200.064000000013,completion,,244637.39999997616,244635.6,241418.869,241404.80000001192,241435.536,244652.267,,white
,Frame,canvas.Frame,3_63,2022-03-01T10:40:22.263Z,,,,1,VA,3201.964000000007,,,244637.5,244637.5,241418.869,241404.10000002384,241435.536,244668.934,,white
,Fixation,canvas.Screen,3_64_0_0,2022-03-01T10:40:24.750Z,,,,0,V,2466.715999999986,timeout,,247123.80000001192,247118.983,244652.267,244638.19999998808,244668.934,247135.65,,white
,Stimulus,canvas.Screen,3_64_0_1,2022-03-01T10:40:24.850Z,,,,0,V,100.00200000000768,timeout,,247224.30000001192,247218.985,247118.983,247123.89999997616,247135.65,247235.652,,white
,Reaction,canvas.Screen,3_64_0_2,2022-03-01T10:40:26.347Z,,,,0,V,1500.0299999999988,timeout,,248721.39999997616,248719.015,247218.985,247224.39999997616,247235.652,248735.682,,white
,Trial,flow.Sequence,3_64_0,2022-03-01T10:40:26.347Z,,,,0,V,4050.0810000000056,completion,,248721.60000002384,248719.015,244652.267,244638.10000002384,244668.934,248735.682,,white
,Frame,canvas.Frame,3_64,2022-03-01T10:40:26.347Z,,,,0,V,4052.7659999880707,,,248721.69999998808,248721.69999998808,244652.267,244637.60000002384,244668.934,248752.349,,white
,Fixation,canvas.Screen,3_65_0_0,2022-03-01T10:40:28.330Z,,,,0,V,1966.7060000000056,timeout,,250704,250702.388,248735.682,248722.30000001192,248752.349,250719.055,,white
,Stimulus,canvas.Screen,3_65_0_1,2022-03-01T10:40:28.433Z,,,,0,V,100.00200000000768,timeout,,250807.10000002384,250802.39,250702.388,250704.19999998808,250719.055,250819.057,,white
,Reaction,canvas.Screen,3_65_0_2,2022-03-01T10:40:29.930Z,,,,0,V,1500.0299999999988,timeout,,252304.10000002384,252302.42,250802.39,250807.30000001192,250819.057,252319.087,,white
,Trial,flow.Sequence,3_65_0,2022-03-01T10:40:29.930Z,,,,0,V,3550.0710000000254,completion,,252304.5,252302.42,248735.682,248722.30000001192,248752.349,252319.087,,white
,Frame,canvas.Frame,3_65,2022-03-01T10:40:29.931Z,,,,0,V,3552.1510000000126,,,252304.60000002384,252304.5,248735.682,248721.69999998808,248752.349,252335.754,,white
,Fixation,canvas.Screen,3_66_0_0,2022-03-01T10:40:31.548Z,,,,0,V,1600.0320000000065,timeout,,253922.30000001192,253919.119,252319.087,252305.5,252335.754,253935.786,,white
,Stimulus,canvas.Screen,3_66_0_1,2022-03-01T10:40:31.647Z,,,,0,V,100.00200000000768,timeout,,254021.39999997616,254019.121,253919.119,253923.10000002384,253935.786,254035.788,,white
,Reaction,canvas.Screen,3_66_0_2,2022-03-01T10:40:33.146Z,,,,0,V,1500.0299999999988,timeout,,255520.39999997616,255519.151,254019.121,254021.5,254035.788,255535.818,,white
,Trial,flow.Sequence,3_66_0,2022-03-01T10:40:33.147Z,,,,0,V,3183.3970000000263,completion,,255520.60000002384,255519.151,252319.087,252305.5,252335.754,255535.818,,white
,Frame,canvas.Frame,3_66,2022-03-01T10:40:33.147Z,,,,0,V,3184.945999988093,,,255520.69999998808,255520.69999998808,252319.087,252304.69999998808,252335.754,255552.485,,white
,Fixation,canvas.Screen,3_67_0_0,2022-03-01T10:40:34.948Z,,,,1,VA,1783.369000000006,timeout,,257321.80000001192,257319.187,255535.818,255521.39999997616,255552.485,257335.854,,white
,Stimulus,canvas.Screen,3_67_0_1,2022-03-01T10:40:35.048Z,,,,1,VA,100.00200000000768,timeout,,257421.60000002384,257419.189,257319.187,257322,257335.854,257435.856,,white
,Reaction,canvas.Screen,3_67_0_2,2022-03-01T10:40:36.548Z,,,,1,VA,1500.0299999999988,timeout,,258921.5,258919.219,257419.189,257421.80000001192,257435.856,258935.886,,white
,Trial,flow.Sequence,3_67_0,2022-03-01T10:40:36.548Z,,,,1,VA,3366.734000000026,completion,,258922,258919.219,255535.818,255521.39999997616,255552.485,258935.886,,white
,Frame,canvas.Frame,3_67,2022-03-01T10:40:36.548Z,,,,1,VA,3369.615000023856,,,258922.30000001192,258922.10000002384,255535.818,255520.80000001192,255552.485,258952.553,,white
,Fixation,canvas.Screen,3_68_0_0,2022-03-01T10:40:38.798Z,,,,0,V,2233.377999999997,timeout,,261171.5,261169.264,258935.886,258923.39999997616,258952.553,261185.931,,white
,Stimulus,canvas.Screen,3_68_0_1,2022-03-01T10:40:38.897Z,,,,0,V,100.00199999997858,timeout,,261270.5,261269.266,261169.264,261171.69999998808,261185.931,261285.933,,white
,Reaction,canvas.Screen,3_68_0_2,2022-03-01T10:40:40.397Z,,,,0,V,1500.0299999999988,timeout,,262771,262769.296,261269.266,261270.69999998808,261285.933,262785.963,,white
,Trial,flow.Sequence,3_68_0,2022-03-01T10:40:40.398Z,,,,0,V,3816.7429999999586,completion,,262771.3000000119,262769.296,258935.886,258923.19999998808,258952.553,262785.963,,white
,Frame,canvas.Frame,3_68,2022-03-01T10:40:40.398Z,,,,0,V,3818.8469999761437,,,262771.5,262771.39999997616,258935.886,258922.39999997616,258952.553,262802.63,,white
,Fixation,canvas.Screen,3_69_0_0,2022-03-01T10:40:42.148Z,,,,0,V,1733.3680000000168,timeout,,264521.39999997616,264519.331,262785.963,262772.5,262802.63,264535.998,,white
,Stimulus,canvas.Screen,3_69_0_1,2022-03-01T10:40:42.248Z,,,,0,V,100.00199999997858,timeout,,264621.89999997616,264619.333,264519.331,264521.60000002384,264535.998,264636,,white
,Reaction,canvas.Screen,3_69_0_2,2022-03-01T10:40:43.749Z,,,,0,V,1500.030000000028,timeout,,266122.1999999881,266119.363,264619.333,264622.10000002384,264636,266136.03,,white
,Trial,flow.Sequence,3_69_0,2022-03-01T10:40:43.749Z,,,,0,V,3316.7330000000075,completion,,266122.60000002384,266119.363,262785.963,262772.39999997616,262802.63,266136.03,,white
,Frame,canvas.Frame,3_69,2022-03-01T10:40:43.749Z,,,,0,V,3320.1700000119163,,,266122.8000000119,266122.8000000119,262785.963,262771.60000002384,262802.63,266152.697,,white
,Fixation,canvas.Screen,3_70_0_0,2022-03-01T10:40:46.148Z,,,,0,V,2383.380999999994,timeout,,268521.39999997616,268519.411,266136.03,266123.6999999881,266152.697,268536.078,,white
,Stimulus,canvas.Screen,3_70_0_1,2022-03-01T10:40:46.248Z,,,,0,V,100.00200000003679,timeout,,268621.3000000119,268619.413,268519.411,268521.60000002384,268536.078,268636.08,,white
,Reaction,canvas.Screen,3_70_0_2,2022-03-01T10:40:47.748Z,,,,0,V,1500.0299999999697,timeout,,270121.3000000119,270119.443,268619.413,268621.5,268636.08,270136.11,,white
,Trial,flow.Sequence,3_70_0,2022-03-01T10:40:47.748Z,,,,0,V,3966.746000000043,completion,,270121.60000002384,270119.443,266136.03,266123.6999999881,266152.697,270136.11,,white
,Frame,canvas.Frame,3_70,2022-03-01T10:40:47.748Z,,,,0,V,3969.0029999880935,,,270121.8000000119,270121.6999999881,266136.03,266122.89999997616,266152.697,270152.777,,white
,Fixation,canvas.Screen,3_71_0_0,2022-03-01T10:40:49.631Z,,,,1,VA,1866.704000000027,timeout,,272005,272002.814,270136.11,270122.8000000119,270152.777,272019.481,,white
,Stimulus,canvas.Screen,3_71_0_1,2022-03-01T10:40:49.731Z,,,,1,VA,100.00199999997858,timeout,,272104.89999997616,272102.816,272002.814,272005.1999999881,272019.481,272119.483,,white
,Reaction,canvas.Screen,3_71_0_2,2022-03-01T10:40:51.231Z,,,,1,VA,1500.0299999999697,timeout,,273604.6999999881,273602.846,272102.816,272105.10000002384,272119.483,273619.513,,white
,Trial,flow.Sequence,3_71_0,2022-03-01T10:40:51.232Z,,,,1,VA,3450.0690000000177,completion,,273605,273602.846,270136.11,270122.6999999881,270152.777,273619.513,,white
,Frame,canvas.Frame,3_71,2022-03-01T10:40:51.232Z,,,,1,VA,3452.32300002384,,,273605.3000000119,273605.10000002384,270136.11,270121.89999997616,270152.777,273636.18,,white
,Fixation,canvas.Screen,3_72_0_0,2022-03-01T10:40:52.772Z,,,,1,VA,1516.6969999999856,timeout,,275145.3000000119,275136.21,273619.513,273606.10000002384,273636.18,275152.877,,white
,Stimulus,canvas.Screen,3_72_0_1,2022-03-01T10:40:52.867Z,,,,1,VA,100.00200000003679,timeout,,275240.1999999881,275236.212,275136.21,275145.5,275152.877,275252.879,,white
,Reaction,canvas.Screen,3_72_0_2,2022-03-01T10:40:54.366Z,,,,1,VA,1500.0299999999697,timeout,,276739,276736.242,275236.212,275240.3000000119,275252.879,276752.909,,white
,Trial,flow.Sequence,3_72_0,2022-03-01T10:40:54.366Z,,,,1,VA,3100.0620000000345,completion,,276739.1999999881,276736.242,273619.513,273606.10000002384,273636.18,276752.909,,white
,Frame,canvas.Frame,3_72,2022-03-01T10:40:54.366Z,,,,1,VA,3103.019999988086,,,276739.1999999881,276739.1999999881,273619.513,273605.3000000119,273636.18,276786.243,,white
,Fixation,canvas.Screen,3_73_0_0,2022-03-01T10:40:56.058Z,,,,0,V,1650.0329999999958,timeout,,278431,278419.609,276752.909,276739.89999997616,276786.243,278436.276,,white
,Stimulus,canvas.Screen,3_73_0_1,2022-03-01T10:40:56.147Z,,,,0,V,100.00199999997858,timeout,,278520.1999999881,278519.611,278419.609,278431.10000002384,278436.276,278536.278,,white
,Reaction,canvas.Screen,3_73_0_2,2022-03-01T10:40:57.649Z,,,,0,V,1500.030000000028,timeout,,280022.1999999881,280019.641,278519.611,278520.1999999881,278536.278,280036.308,,white
,Trial,flow.Sequence,3_73_0,2022-03-01T10:40:57.649Z,,,,0,V,3233.3979999999865,completion,,280022.5,280019.641,276752.909,276739.8000000119,276786.243,280036.308,,white
,Frame,canvas.Frame,3_73,2022-03-01T10:40:57.649Z,,,,0,V,3236.357000023825,,,280022.6999999881,280022.60000002384,276752.909,276739.3000000119,276786.243,280052.975,,white
,Fixation,canvas.Screen,3_74_0_0,2022-03-01T10:40:59.331Z,,,,1,A,1666.7000000000116,timeout,,281704.6999999881,281703.008,280036.308,280023.8000000119,280052.975,281719.675,,grey
,Stimulus,canvas.Screen,3_74_0_1,2022-03-01T10:40:59.431Z,,,,1,A,100.00200000003679,timeout,,281804.5,281803.01,281703.008,281704.8000000119,281719.675,281819.677,,grey
,Reaction,canvas.Screen,3_74_0_2,2022-03-01T10:41:00.931Z,,,,1,A,1500.0299999999697,timeout,,283304.5,283303.04,281803.01,281805.89999997616,281819.677,283319.707,,grey
,Trial,flow.Sequence,3_74_0,2022-03-01T10:41:00.931Z,,,,1,A,3250.0650000000023,completion,,283304.6999999881,283303.04,280036.308,280023.8000000119,280052.975,283319.707,,grey
,Frame,canvas.Frame,3_74,2022-03-01T10:41:00.932Z,,,,1,A,3251.7249999881024,,,283304.8000000119,283304.6999999881,280036.308,280022.89999997616,280052.975,283336.374,,grey
,Fixation,canvas.Screen,3_75_0_0,2022-03-01T10:41:03.215Z,,,,1,A,2266.7119999999995,timeout,,285588.5,285586.419,283319.707,283305.89999997616,283336.374,285603.086,,grey
,Stimulus,canvas.Screen,3_75_0_1,2022-03-01T10:41:03.315Z,,,,1,A,100.00199999997858,timeout,,285688.1999999881,285686.421,285586.419,285588.89999997616,285603.086,285703.088,,grey
,Reaction,canvas.Screen,3_75_0_2,2022-03-01T10:41:04.814Z,,,,1,A,1500.030000000028,timeout,,287187.10000002384,287186.451,285686.421,285688.3000000119,285703.088,287203.118,,grey
,Trial,flow.Sequence,3_75_0,2022-03-01T10:41:04.814Z,,,,1,A,3850.07699999999,completion,,287187.3000000119,287186.451,283319.707,283305.8000000119,283336.374,287203.118,,grey
,Frame,canvas.Frame,3_75,2022-03-01T10:41:04.814Z,,,,1,A,3851.0259999761474,,,287187.39999997616,287187.39999997616,283319.707,283304.89999997616,283336.374,287219.785,,grey
,Fixation,canvas.Screen,3_76_0_0,2022-03-01T10:41:06.748Z,,,,1,VA,1916.7050000000163,timeout,,289120.89999997616,289119.823,287203.118,287188,287219.785,289136.49,,white
,Stimulus,canvas.Screen,3_76_0_1,2022-03-01T10:41:06.848Z,,,,1,VA,100.00200000003679,timeout,,289221.39999997616,289219.825,289119.823,289121.10000002384,289136.49,289236.492,,white
,Reaction,canvas.Screen,3_76_0_2,2022-03-01T10:41:08.352Z,,,,1,VA,1500.0299999999697,timeout,,290724.89999997616,290719.855,289219.825,289221.60000002384,289236.492,290736.522,,white
,Trial,flow.Sequence,3_76_0,2022-03-01T10:41:08.352Z,,,,1,VA,3500.070000000007,completion,,290725,290719.855,287203.118,287188,287219.785,290736.522,,white
,Frame,canvas.Frame,3_76,2022-03-01T10:41:08.352Z,,,,1,VA,3505.3150000238675,,,290725.10000002384,290725.10000002384,287203.118,287187.5,287219.785,290753.189,,white
,Fixation,canvas.Screen,3_77_0_0,2022-03-01T10:41:10.599Z,,,,1,A,2233.377999999968,timeout,,292971.89999997616,292969.9,290736.522,290725.8000000119,290753.189,292986.567,,grey
,Stimulus,canvas.Screen,3_77_0_1,2022-03-01T10:41:10.699Z,,,,1,A,100.00200000003679,timeout,,293072.3000000119,293069.902,292969.9,292972.10000002384,292986.567,293086.569,,grey
,Reaction,canvas.Screen,3_77_0_2,2022-03-01T10:41:12.198Z,,,,1,A,1500.0299999999697,timeout,,294571,294569.932,293069.902,293072.5,293086.569,294586.599,,grey
,Trial,flow.Sequence,3_77_0,2022-03-01T10:41:12.198Z,,,,1,A,3816.7429999999586,completion,,294571.39999997616,294569.932,290736.522,290725.6999999881,290753.189,294586.599,,grey
,Frame,canvas.Frame,3_77,2022-03-01T10:41:12.199Z,,,,1,A,3818.210999976145,,,294571.5,294571.39999997616,290736.522,290725.1999999881,290753.189,294603.266,,grey
,Fixation,canvas.Screen,3_78_0_0,2022-03-01T10:41:13.733Z,,,,1,A,1516.6969999999856,timeout,,296105.8000000119,296103.296,294586.599,294572.10000002384,294603.266,296119.963,,grey
,Stimulus,canvas.Screen,3_78_0_1,2022-03-01T10:41:13.833Z,,,,1,A,100.00200000003679,timeout,,296205.8000000119,296203.298,296103.296,296105.89999997616,296119.963,296219.965,,grey
,Reaction,canvas.Screen,3_78_0_2,2022-03-01T10:41:15.333Z,,,,1,A,1500.0299999999697,timeout,,297705.60000002384,297703.328,296203.298,296206,296219.965,297719.995,,grey
,Trial,flow.Sequence,3_78_0,2022-03-01T10:41:15.333Z,,,,1,A,3100.0619999999763,completion,,297705.89999997616,297703.328,294586.599,294572.10000002384,294603.266,297719.995,,grey
,Frame,canvas.Frame,3_78,2022-03-01T10:41:15.333Z,,,,1,A,3102.633999976155,,,297706,297705.89999997616,294586.599,294571.60000002384,294603.266,297736.662,,grey
,Fixation,canvas.Screen,3_79_0_0,2022-03-01T10:41:17.066Z,,,,1,VA,1716.701000000001,timeout,,299439,299436.696,297719.995,297707,297736.662,299453.363,,white
,Stimulus,canvas.Screen,3_79_0_1,2022-03-01T10:41:17.166Z,,,,1,VA,100.00199999997858,timeout,,299539,299536.698,299436.696,299439.1999999881,299453.363,299553.365,,white
,Reaction,canvas.Screen,3_79_0_2,2022-03-01T10:41:18.666Z,,,,1,VA,1500.030000000028,timeout,,301038.8000000119,301036.728,299536.698,299539.5,299553.365,301053.395,,white
,Trial,flow.Sequence,3_79_0,2022-03-01T10:41:18.666Z,,,,1,VA,3300.0659999999916,completion,,301039,301036.728,297719.995,297706.89999997616,297736.662,301053.395,,white
,Frame,canvas.Frame,3_79,2022-03-01T10:41:18.666Z,,,,1,VA,3302.4380000238307,,,301039.3000000119,301039.10000002384,297719.995,297706.10000002384,297736.662,301070.062,,white
,Fixation,canvas.Screen,3_80_0_0,2022-03-01T10:41:21.099Z,,,,0,V,2416.7150000000256,timeout,,303472,303470.11,301053.395,301040.10000002384,301070.062,303486.777,,white
,Stimulus,canvas.Screen,3_80_0_1,2022-03-01T10:41:21.201Z,,,,0,V,100.00199999997858,timeout,,303573.60000002384,303570.112,303470.11,303472.1999999881,303486.777,303586.779,,white
,Reaction,canvas.Screen,3_80_0_2,2022-03-01T10:41:22.700Z,,,,0,V,1500.030000000028,timeout,,305072.1999999881,305070.142,303570.112,303574.5,303586.779,305086.809,,white
,Trial,flow.Sequence,3_80_0,2022-03-01T10:41:22.700Z,,,,0,V,4000.0800000000163,completion,,305072.60000002384,305070.142,301053.395,301040.10000002384,301070.062,305086.809,,white
,Frame,canvas.Frame,3_80,2022-03-01T10:41:22.700Z,,,,0,V,4002.5380000238656,,,305072.6999999881,305072.60000002384,301053.395,301039.3000000119,301070.062,305103.476,,white
,Fixation,canvas.Screen,3_81_0_0,2022-03-01T10:41:25.048Z,,,,1,VA,2333.3800000000047,timeout,,307420.89999997616,307420.189,305086.809,305073.60000002384,305103.476,307436.856,,white
,Stimulus,canvas.Screen,3_81_0_1,2022-03-01T10:41:25.154Z,,,,1,VA,100.00199999997858,timeout,,307526.1999999881,307520.191,307420.189,307421.10000002384,307436.856,307536.858,,white
,Reaction,canvas.Screen,3_81_0_2,2022-03-01T10:41:26.650Z,,,,1,VA,1500.0299999999697,timeout,,309022.3000000119,309020.221,307520.191,307526.39999997616,307536.858,309036.888,,white
,Trial,flow.Sequence,3_81_0,2022-03-01T10:41:26.650Z,,,,1,VA,3916.7449999999953,completion,,309022.5,309020.221,305086.809,305073.5,305103.476,309036.888,,white
,Frame,canvas.Frame,3_81,2022-03-01T10:41:26.650Z,,,,1,VA,3919.1240000238176,,,309022.8000000119,309022.60000002384,305086.809,305072.8000000119,305103.476,309053.555,,white
,Fixation,canvas.Screen,3_82_0_0,2022-03-01T10:41:28.534Z,,,,1,A,1866.704000000027,timeout,,310906.3000000119,310903.592,309036.888,309023.6999999881,309053.555,310920.259,,grey
,Stimulus,canvas.Screen,3_82_0_1,2022-03-01T10:41:28.634Z,,,,1,A,100.00199999997858,timeout,,311006.10000002384,311003.594,310903.592,310906.39999997616,310920.259,311020.261,,grey
,Reaction,canvas.Screen,3_82_0_2,2022-03-01T10:41:30.133Z,,,,1,A,1500.030000000028,timeout,,312505.10000002384,312503.624,311003.594,311006.3000000119,311020.261,312520.291,,grey
,Trial,flow.Sequence,3_82_0,2022-03-01T10:41:30.133Z,,,,1,A,3450.0690000000177,completion,,312505.39999997616,312503.624,309036.888,309023.6999999881,309053.555,312520.291,,grey
,Frame,canvas.Frame,3_82,2022-03-01T10:41:30.133Z,,,,1,A,3451.844999976165,,,312505.39999997616,312505.39999997616,309036.888,309022.8000000119,309053.555,312536.958,,grey
,Fixation,canvas.Screen,3_83_0_0,2022-03-01T10:41:32.034Z,,,,0,V,1883.3710000000428,timeout,,314406,314403.662,312520.291,312506.1999999881,312536.958,314420.329,,white
,Stimulus,canvas.Screen,3_83_0_1,2022-03-01T10:41:32.133Z,,,,0,V,100.00199999997858,timeout,,314505.1999999881,314503.664,314403.662,314406.39999997616,314420.329,314520.331,,white
,Reaction,canvas.Screen,3_83_0_2,2022-03-01T10:41:33.635Z,,,,0,V,1500.0299999999697,timeout,,316006.89999997616,316003.694,314503.664,314505.39999997616,314520.331,316020.361,,white
,Trial,flow.Sequence,3_83_0,2022-03-01T10:41:33.635Z,,,,0,V,3466.7360000000335,completion,,316007.1999999881,316003.694,312520.291,312506.10000002384,312536.958,316020.361,,white
,Frame,canvas.Frame,3_83,2022-03-01T10:41:33.635Z,,,,0,V,3470.3420000119368,,,316007.39999997616,316007.3000000119,312520.291,312505.5,312536.958,316037.028,,white
,Fixation,canvas.Screen,3_84_0_0,2022-03-01T10:41:35.417Z,,,,0,V,1766.7019999999902,timeout,,317789.3000000119,317787.063,316020.361,316009.3000000119,316037.028,317803.73,,white
,Stimulus,canvas.Screen,3_84_0_1,2022-03-01T10:41:35.518Z,,,,0,V,100.00200000003679,timeout,,317889.89999997616,317887.065,317787.063,317789.39999997616,317803.73,317903.732,,white
,Reaction,canvas.Screen,3_84_0_2,2022-03-01T10:41:37.017Z,,,,0,V,1500.0299999999697,timeout,,319389.5,319387.095,317887.065,317890.10000002384,317903.732,319403.762,,white
,Trial,flow.Sequence,3_84_0,2022-03-01T10:41:37.018Z,,,,0,V,3350.066999999981,completion,,319390.39999997616,319387.095,316020.361,316009.1999999881,316037.028,319403.762,,white
,Frame,canvas.Frame,3_84,2022-03-01T10:41:37.018Z,,,,0,V,3353.5720000238507,,,319390.60000002384,319390.60000002384,316020.361,316007.5,316037.028,319420.429,,white
,Fixation,canvas.Screen,3_85_0_0,2022-03-01T10:41:39.218Z,,,,0,V,2183.3769999999786,timeout,,321589.8000000119,321587.139,319403.762,319391.39999997616,319420.429,321603.806,,white
,Stimulus,canvas.Screen,3_85_0_1,2022-03-01T10:41:39.318Z,,,,0,V,100.00200000003679,timeout,,321689.8000000119,321687.141,321587.139,321589.89999997616,321603.806,321703.808,,white
,Reaction,canvas.Screen,3_85_0_2,2022-03-01T10:41:40.817Z,,,,0,V,1500.0299999999697,timeout,,323189.5,323187.171,321687.141,321690,321703.808,323203.838,,white
,Trial,flow.Sequence,3_85_0,2022-03-01T10:41:40.818Z,,,,0,V,3766.7419999999693,completion,,323189.89999997616,323187.171,319403.762,319391.39999997616,319420.429,323203.838,,white
,Frame,canvas.Frame,3_85,2022-03-01T10:41:40.818Z,,,,0,V,3769.5709999999963,,,323190,323190,319403.762,319390.6999999881,319420.429,323220.505,,white
,Fixation,canvas.Screen,3_86_0_0,2022-03-01T10:41:42.417Z,,,,1,VA,1583.3649999999907,timeout,,324789.1999999881,324787.203,323203.838,323191.10000002384,323220.505,324803.87,,white
,Stimulus,canvas.Screen,3_86_0_1,2022-03-01T10:41:42.517Z,,,,1,VA,100.00199999997858,timeout,,324889.3000000119,324887.205,324787.203,324789.3000000119,324803.87,324903.872,,white
,Reaction,canvas.Screen,3_86_0_2,2022-03-01T10:41:44.017Z,,,,1,VA,1500.030000000028,timeout,,326389.10000002384,326387.235,324887.205,324889.5,324903.872,326403.902,,white
,Trial,flow.Sequence,3_86_0,2022-03-01T10:41:44.017Z,,,,1,VA,3166.7299999999814,completion,,326389.3000000119,326387.235,323203.838,323191,323220.505,326403.902,,white
,Frame,canvas.Frame,3_86,2022-03-01T10:41:44.017Z,,,,1,VA,3168.8949999761535,,,326389.5,326389.39999997616,323203.838,323190.1999999881,323220.505,326420.569,,white
,Fixation,canvas.Screen,3_87_0_0,2022-03-01T10:41:45.618Z,,,,0,V,1583.3649999999907,timeout,,327990.10000002384,327987.267,326403.902,326390.3000000119,326420.569,328003.934,,white
,Stimulus,canvas.Screen,3_87_0_1,2022-03-01T10:41:45.717Z,,,,0,V,100.00199999997858,timeout,,328089,328087.269,327987.267,327990.39999997616,328003.934,328103.936,,white
,Reaction,canvas.Screen,3_87_0_2,2022-03-01T10:41:47.218Z,,,,0,V,1500.030000000028,timeout,,329589.89999997616,329587.299,328087.269,328089.1999999881,328103.936,329603.966,,white
,Trial,flow.Sequence,3_87_0,2022-03-01T10:41:47.218Z,,,,0,V,3166.7299999999814,completion,,329590.1999999881,329587.299,326403.902,326390.3000000119,326420.569,329603.966,,white
,Frame,canvas.Frame,3_87,2022-03-01T10:41:47.218Z,,,,0,V,3169.7310000119032,,,329590.3000000119,329590.3000000119,326403.902,326389.60000002384,326420.569,329620.633,,white
,Fixation,canvas.Screen,3_88_0_0,2022-03-01T10:41:48.868Z,,,,0,V,1650.033000000054,timeout,,331240.3000000119,331237.332,329603.966,329591.5,329620.633,331270.666,,white
,Stimulus,canvas.Screen,3_88_0_1,2022-03-01T10:41:48.985Z,,,,0,V,100.00199999997858,timeout,,331356.5,331354.001,331237.332,331240.60000002384,331270.666,331370.668,,white
,Reaction,canvas.Screen,3_88_0_2,2022-03-01T10:41:50.485Z,,,,0,V,1500.0299999999697,timeout,,332856.6999999881,332854.031,331354.001,331356.8000000119,331370.668,332870.698,,white
,Trial,flow.Sequence,3_88_0,2022-03-01T10:41:50.485Z,,,,0,V,3233.3980000000447,completion,,332857,332854.031,329603.966,329591.39999997616,329620.633,332870.698,,white
,Frame,canvas.Frame,3_88,2022-03-01T10:41:50.485Z,,,,0,V,3236.4670000238693,,,332857.1999999881,332857.10000002384,329603.966,329590.5,329620.633,332887.365,,white
,Fixation,canvas.Screen,3_89_0_0,2022-03-01T10:41:52.184Z,,,,0,V,1683.3670000000275,timeout,,334555.6999999881,334554.065,332870.698,332858.1999999881,332887.365,334570.732,,white
,Stimulus,canvas.Screen,3_89_0_1,2022-03-01T10:41:52.285Z,,,,0,V,100.00199999997858,timeout,,334656.6999999881,334654.067,334554.065,334555.89999997616,334570.732,334670.734,,white
,Reaction,canvas.Screen,3_89_0_2,2022-03-01T10:41:53.784Z,,,,0,V,1500.030000000028,timeout,,336155.89999997616,336154.097,334654.067,334656.8000000119,334670.734,336170.764,,white
,Trial,flow.Sequence,3_89_0,2022-03-01T10:41:53.784Z,,,,0,V,3266.732000000018,completion,,336156.10000002384,336154.097,332870.698,332858.1999999881,332887.365,336170.764,,white
,Frame,canvas.Frame,3_89,2022-03-01T10:41:53.784Z,,,,0,V,3268.8349999880884,,,336156.3000000119,336156.1999999881,332870.698,332857.3000000119,332887.365,336187.431,,white
,Fixation,canvas.Screen,3_90_0_0,2022-03-01T10:41:56.183Z,,,,1,VA,2383.380999999994,timeout,,338555.1999999881,338554.145,336170.764,336157.10000002384,336187.431,338570.812,,white
,Stimulus,canvas.Screen,3_90_0_1,2022-03-01T10:41:56.284Z,,,,1,VA,100.00200000003679,timeout,,338656.10000002384,338654.147,338554.145,338555.39999997616,338570.812,338670.814,,white
,Reaction,canvas.Screen,3_90_0_2,2022-03-01T10:41:57.784Z,,,,1,VA,1500.0299999999697,timeout,,340155.5,340154.177,338654.147,338656.3000000119,338670.814,340170.844,,white
,Trial,flow.Sequence,3_90_0,2022-03-01T10:41:57.784Z,,,,1,VA,3966.746000000043,completion,,340155.6999999881,340154.177,336170.764,336157,336187.431,340170.844,,white
,Frame,canvas.Frame,3_90,2022-03-01T10:41:57.784Z,,,,1,VA,3968.3690000119386,,,340156,340155.8000000119,336170.764,336156.3000000119,336187.431,340187.511,,white
,Fixation,canvas.Screen,3_91_0_0,2022-03-01T10:42:00.168Z,,,,1,VA,2366.713999999978,timeout,,342539.6999999881,342537.558,340170.844,340156.8000000119,340187.511,342554.225,,white
,Stimulus,canvas.Screen,3_91_0_1,2022-03-01T10:42:00.269Z,,,,1,VA,100.00200000003679,timeout,,342640.89999997616,342637.56,342537.558,342539.8000000119,342554.225,342654.227,,white
,Reaction,canvas.Screen,3_91_0_2,2022-03-01T10:42:01.768Z,,,,1,VA,1500.0299999999697,timeout,,344139.60000002384,344137.59,342637.56,342641.6999999881,342654.227,344154.257,,white
,Trial,flow.Sequence,3_91_0,2022-03-01T10:42:01.768Z,,,,1,VA,3950.079000000027,completion,,344139.89999997616,344137.59,340170.844,340156.8000000119,340187.511,344154.257,,white
,Frame,canvas.Frame,3_91,2022-03-01T10:42:01.769Z,,,,1,VA,3952.4890000000014,,,344140.10000002384,344140,340170.844,340156,340187.511,344170.924,,white
,Fixation,canvas.Screen,3_92_0_0,2022-03-01T10:42:04.135Z,,,,1,VA,2350.0470000000205,timeout,,346506.6999999881,346504.304,344154.257,344141.10000002384,344170.924,346520.971,,white
,Stimulus,canvas.Screen,3_92_0_1,2022-03-01T10:42:04.235Z,,,,1,VA,100.00199999997858,timeout,,346606.1999999881,346604.306,346504.304,346506.89999997616,346520.971,346620.973,,white
,Reaction,canvas.Screen,3_92_0_2,2022-03-01T10:42:05.735Z,,,,1,VA,1500.030000000028,timeout,,348106.3000000119,348104.336,346604.306,346606.39999997616,346620.973,348121.003,,white
,Trial,flow.Sequence,3_92_0,2022-03-01T10:42:05.735Z,,,,1,VA,3933.412000000011,completion,,348106.60000002384,348104.336,344154.257,344141,344170.924,348121.003,,white
,Frame,canvas.Frame,3_92,2022-03-01T10:42:05.735Z,,,,1,VA,3935.77599998808,,,348106.6999999881,348106.6999999881,344154.257,344140.1999999881,344170.924,348137.67,,white
,Fixation,canvas.Screen,3_93_0_0,2022-03-01T10:42:08.185Z,,,,1,A,2433.3820000000414,timeout,,350556.10000002384,350554.385,348121.003,348107.6999999881,348137.67,350571.052,,grey
,Stimulus,canvas.Screen,3_93_0_1,2022-03-01T10:42:08.285Z,,,,1,A,100.00199999997858,timeout,,350656.60000002384,350654.387,350554.385,350556.3000000119,350571.052,350671.054,,grey
,Reaction,canvas.Screen,3_93_0_2,2022-03-01T10:42:09.784Z,,,,1,A,1500.0299999999697,timeout,,352155.60000002384,352154.417,350654.387,350656.8000000119,350671.054,352171.084,,grey
,Trial,flow.Sequence,3_93_0,2022-03-01T10:42:09.785Z,,,,1,A,4016.747000000032,completion,,352155.89999997616,352154.417,348121.003,348107.6999999881,348137.67,352171.084,,grey
,Frame,canvas.Frame,3_93,2022-03-01T10:42:09.785Z,,,,1,A,4018.3300000000163,,,352156.10000002384,352156,348121.003,348106.89999997616,348137.67,352187.751,,grey
,Fixation,canvas.Screen,3_94_0_0,2022-03-01T10:42:11.852Z,,,,1,A,2050.0410000000265,timeout,,354222.89999997616,354221.125,352171.084,352157,352187.751,354237.792,,grey
,Stimulus,canvas.Screen,3_94_0_1,2022-03-01T10:42:11.952Z,,,,1,A,100.00199999997858,timeout,,354323.39999997616,354321.127,354221.125,354223,354237.792,354337.794,,grey
,Reaction,canvas.Screen,3_94_0_2,2022-03-01T10:42:13.453Z,,,,1,A,1500.030000000028,timeout,,355823.8000000119,355821.157,354321.127,354323.5,354337.794,355837.824,,grey
,Trial,flow.Sequence,3_94_0,2022-03-01T10:42:13.453Z,,,,1,A,3633.4060000000172,completion,,355824.10000002384,355821.157,352171.084,352156.89999997616,352187.751,355837.824,,grey
,Frame,canvas.Frame,3_94,2022-03-01T10:42:13.453Z,,,,1,A,3636.44899998809,,,355824.3000000119,355824.1999999881,352171.084,352156.1999999881,352187.751,355854.491,,grey
,Fixation,canvas.Screen,3_95_0_0,2022-03-01T10:42:15.885Z,,,,1,VA,2416.7150000000256,timeout,,358256.5,358254.539,355837.824,355825.6999999881,355854.491,358271.206,,white
,Stimulus,canvas.Screen,3_95_0_1,2022-03-01T10:42:15.985Z,,,,1,VA,100.00199999997858,timeout,,358356,358354.541,358254.539,358256.6999999881,358271.206,358371.208,,white
,Reaction,canvas.Screen,3_95_0_2,2022-03-01T10:42:17.485Z,,,,1,VA,1500.030000000028,timeout,,359856,359854.571,358354.541,358356.3000000119,358371.208,359871.238,,white
,Trial,flow.Sequence,3_95_0,2022-03-01T10:42:17.485Z,,,,1,VA,4000.0800000000163,completion,,359856.39999997616,359854.571,355837.824,355825.60000002384,355854.491,359871.238,,white
,Frame,canvas.Frame,3_95,2022-03-01T10:42:17.485Z,,,,1,VA,4002.109000023862,,,359856.60000002384,359856.60000002384,355837.824,355824.5,355854.491,359887.905,,white
,Fixation,canvas.Screen,3_96_0_0,2022-03-01T10:42:19.219Z,,,,1,A,1716.701000000001,timeout,,361590.1999999881,361587.939,359871.238,359858,359887.905,361604.606,,grey
,Stimulus,canvas.Screen,3_96_0_1,2022-03-01T10:42:19.320Z,,,,1,A,100.00199999997858,timeout,,361690.60000002384,361687.941,361587.939,361590.3000000119,361604.606,361704.608,,grey
,Reaction,canvas.Screen,3_96_0_2,2022-03-01T10:42:20.818Z,,,,1,A,1500.0299999999697,timeout,,363188.89999997616,363187.971,361687.941,361690.89999997616,361704.608,363204.638,,grey
,Trial,flow.Sequence,3_96_0,2022-03-01T10:42:20.818Z,,,,1,A,3300.0659999999916,completion,,363189.1999999881,363187.971,359871.238,359857.89999997616,359887.905,363204.638,,grey
,Frame,canvas.Frame,3_96,2022-03-01T10:42:20.818Z,,,,1,A,3301.294999988051,,,363189.3000000119,363189.1999999881,359871.238,359856.6999999881,359887.905,363221.305,,grey
,Fixation,canvas.Screen,3_97_0_0,2022-03-01T10:42:22.403Z,,,,1,A,1566.698000000033,timeout,,364774.10000002384,364771.336,363204.638,363189.89999997616,363221.305,364788.003,,grey
,Stimulus,canvas.Screen,3_97_0_1,2022-03-01T10:42:22.502Z,,,,1,A,100.00199999997858,timeout,,364873.10000002384,364871.338,364771.336,364774.39999997616,364788.003,364888.005,,grey
,Reaction,canvas.Screen,3_97_0_2,2022-03-01T10:42:24.002Z,,,,1,A,1500.0299999999697,timeout,,366373,366371.368,364871.338,364873.1999999881,364888.005,366388.035,,grey
,Trial,flow.Sequence,3_97_0,2022-03-01T10:42:24.002Z,,,,1,A,3150.0630000000237,completion,,366373.39999997616,366371.368,363204.638,363189.8000000119,363221.305,366388.035,,grey
,Frame,canvas.Frame,3_97,2022-03-01T10:42:24.003Z,,,,1,A,3152.195000000007,,,366373.60000002384,366373.5,363204.638,363189.39999997616,363221.305,366404.702,,grey
,Fixation,canvas.Screen,3_98_0_0,2022-03-01T10:42:26.303Z,,,,0,V,2283.3790000000154,timeout,,368673.5,368671.414,366388.035,366375,366404.702,368688.081,,white
,Stimulus,canvas.Screen,3_98_0_1,2022-03-01T10:42:26.403Z,,,,0,V,100.00199999997858,timeout,,368774,368771.416,368671.414,368673.6999999881,368688.081,368788.083,,white
,Reaction,canvas.Screen,3_98_0_2,2022-03-01T10:42:27.902Z,,,,0,V,1500.030000000028,timeout,,370272.39999997616,370271.446,368771.416,368774.10000002384,368788.083,370288.113,,white
,Trial,flow.Sequence,3_98_0,2022-03-01T10:42:27.902Z,,,,0,V,3866.744000000006,completion,,370272.6999999881,370271.446,366388.035,366374.89999997616,366404.702,370288.113,,white
,Frame,canvas.Frame,3_98,2022-03-01T10:42:27.902Z,,,,0,V,3868.0980000119307,,,370272.89999997616,370272.8000000119,366388.035,366374.10000002384,366404.702,370304.78,,white
,Fixation,canvas.Screen,3_99_0_0,2022-03-01T10:42:29.870Z,,,,1,VA,1950.0389999999898,timeout,,372240.89999997616,372238.152,370288.113,370273.8000000119,370304.78,372254.819,,white
,Stimulus,canvas.Screen,3_99_0_1,2022-03-01T10:42:29.969Z,,,,1,VA,100.00199999997858,timeout,,372340.1999999881,372338.154,372238.152,372241.10000002384,372254.819,372354.821,,white
,Reaction,canvas.Screen,3_99_0_2,2022-03-01T10:42:31.470Z,,,,1,VA,1500.030000000028,timeout,,373840.3000000119,373838.184,372338.154,372340.5,372354.821,373854.851,,white
,Trial,flow.Sequence,3_99_0,2022-03-01T10:42:31.470Z,,,,1,VA,3533.4039999999804,completion,,373840.60000002384,373838.184,370288.113,370273.6999999881,370304.78,373854.851,,white
,Frame,canvas.Frame,3_99,2022-03-01T10:42:31.470Z,,,,1,VA,3535.820000023814,,,373840.6999999881,373840.60000002384,370288.113,370273,370304.78,373871.518,,white
,Loop,flow.Loop,3,2022-03-01T10:42:31.470Z,,,,,,352445.97000002384,completion,,373841,373840.60000002384,21361.296,21363.899999976158,21394.63,373871.518,,
,end,html.Page,4,2022-03-01T10:42:34.545Z,,,,,,3043.282000011939,form submission,,376915.3000000119,376914.8000000119,373854.851,373841.10000002384,373871.518,376921.579,,
,root,flow.Sequence,,2022-03-01T10:42:34.546Z,,,,,,375737.2410000119,completion,,376916.5,376914.8000000119,1160.892,1133.1000000238419,1177.559,376921.579,,