id,sender,sender_type,sender_id,timestamp,meta,,age,aud,condition,duration,ended_on,gender,response,response_action,time_commit,time_end,time_render,time_run,time_show,time_switch,url,vis
Royal Tenenbaum,Hello,html.Page,0,2022-03-01T09:07:50.369Z,"{""labjs_version"":""20.2.4"",""labjs_build"":{""flavor"":""development"",""commit"":""f5b4a49f956347addd546a832a3327688c2c0fef""},""location"":""https://labjs.felixhenninger.com/api/labjs_preview/index.html"",""userAgent"":""Mozilla/5.0 (Macintosh; Intel Mac OS X 10_15_7) AppleWebKit/537.36 (KHTML, like Gecko) Chrome/98.0.4758.80 Safari/537.36"",""platform"":""MacIntel"",""language"":""de-DE"",""locale"":""de"",""timeZone"":""Europe/Berlin"",""timezoneOffset"":-60,""screen_width"":1440,""screen_height"":900,""scroll_width"":1440,""scroll_height"":708,""window_innerWidth"":1440,""window_innerHeight"":756,""devicePixelRatio"":1}",,71,,,21044.985000011922,form submission,male,,,22047.69999998808,22046.80000001192,985.148,994.8999999761581,1001.815,22035.569,{},
,Instructions,html.Page,1,2022-03-01T09:07:52.635Z,,,,,,2277.8309999761586,form submission,,,,24313.899999976158,24313.399999976158,22018.902,22048.19999998808,22035.569,24318.948,,
,Change Background,canvas.Screen,2,2022-03-01T09:07:55.626Z,,,,,,3000.0600000000013,timeout,,,,27305,27302.341,24302.281,24314.19999998808,24318.948,27319.008,,
,Fixation,canvas.Screen,3_0_0_0,2022-03-01T09:07:58.043Z,,,,1,A,2416.715,timeout,,,,29721.5,29719.056,27302.341,27306.399999976158,27319.008,29735.723,,grey
,Stimulus,canvas.Screen,3_0_0_1,2022-03-01T09:07:58.142Z,,,,1,A,100.00199999999677,timeout,,,,29820.80000001192,29819.058,29719.056,29721.80000001192,29735.723,29835.725,,grey
,Reaction,canvas.Screen,3_0_0_2,2022-03-01T09:07:58.685Z,,,,1,A,509.4749999880805,response,,stim_detected,keydown(Space),30364.30000001192,30345.19999998808,29819.058,29821,29835.725,30352.402,,grey
,Trial,flow.Sequence,3_0_0,2022-03-01T09:07:58.686Z,,,,1,A,3026.1919999880774,completion,,,,30364.69999998808,30345.19999998808,27302.341,27306.30000001192,27319.008,30352.402,,grey
,Frame,canvas.Frame,3_0,2022-03-01T09:07:58.686Z,,,,1,A,3045.6919999880774,,,,,30364.80000001192,30364.69999998808,27302.341,27305.30000001192,27319.008,30352.402,,grey
,Fixation,canvas.Screen,3_1_0_0,2022-03-01T09:08:00.610Z,,,,1,A,1950.0390000000007,timeout,,,,32289,32285.774,30335.735,30365.600000023842,30352.402,32302.441,,grey
,Stimulus,canvas.Screen,3_1_0_1,2022-03-01T09:08:00.709Z,,,,1,A,100.00200000000041,timeout,,,,32387.399999976158,32385.776,32285.774,32289.5,32302.441,32402.443,,grey
,Reaction,canvas.Screen,3_1_0_2,2022-03-01T09:08:01.014Z,,,,1,A,284.95699997615884,response,,stim_detected,keydown(Space),32692.399999976158,32687.399999976158,32385.776,32388,32402.443,32702.449,,grey
,Trial,flow.Sequence,3_1_0,2022-03-01T09:08:01.014Z,,,,1,A,2334.99799997616,completion,,,,32693.100000023842,32687.399999976158,30335.735,30365.600000023842,30352.402,32702.449,,grey
,Frame,canvas.Frame,3_1,2022-03-01T09:08:01.015Z,,,,1,A,2340.797999988081,,,,,32693.399999976158,32693.19999998808,30335.735,30364.899999976158,30352.402,32702.449,,grey
,Fixation,canvas.Screen,3_2_0_0,2022-03-01T09:08:02.776Z,,,,1,A,1766.7019999999975,timeout,,,,34454.5,34452.484,32685.782,32694.80000001192,32702.449,34469.151,,grey
,Stimulus,canvas.Screen,3_2_0_1,2022-03-01T09:08:02.876Z,,,,1,A,100.00200000000041,timeout,,,,34555,34552.486,34452.484,34454.69999998808,34469.151,34569.153,,grey
,Reaction,canvas.Screen,3_2_0_2,2022-03-01T09:08:03.203Z,,,,1,A,308.3470000000016,response,,stim_detected,keydown(Space),34882.10000002384,34877.5,34552.486,34555.19999998808,34569.153,34885.826,,grey
,Trial,flow.Sequence,3_2_0,2022-03-01T09:08:03.204Z,,,,1,A,2175.0509999999995,completion,,,,34882.5,34877.5,32685.782,32694.69999998808,32702.449,34885.826,,grey
,Frame,canvas.Frame,3_2,2022-03-01T09:08:03.204Z,,,,1,A,2180.1510000238413,,,,,34882.69999998808,34882.60000002384,32685.782,32693.600000023842,32702.449,34885.826,,grey
,Fixation,canvas.Screen,3_3_0_0,2022-03-01T09:08:04.693Z,,,,1,A,1500.0299999999988,timeout,,,,36371.69999998808,36369.189,34869.159,34883.80000001192,34885.826,36385.856,,grey
,Stimulus,canvas.Screen,3_3_0_1,2022-03-01T09:08:04.792Z,,,,1,A,100.00200000000041,timeout,,,,36470.89999997616,36469.191,36369.189,36371.89999997616,36385.856,36485.858,,grey
,Reaction,canvas.Screen,3_3_0_2,2022-03-01T09:08:05.108Z,,,,1,A,296.44200001192075,response,,stim_detected,keydown(Space),36787,36782.30000001192,36469.191,36471,36485.858,36802.531,,grey
,Trial,flow.Sequence,3_3_0,2022-03-01T09:08:05.109Z,,,,1,A,1896.47400001192,completion,,,,36787.39999997616,36782.30000001192,34869.159,34883.69999998808,34885.826,36802.531,,grey
,Frame,canvas.Frame,3_3,2022-03-01T09:08:05.109Z,,,,1,A,1901.673999999999,,,,,36787.60000002384,36787.5,34869.159,34882.80000001192,34885.826,36802.531,,grey
,Fixation,canvas.Screen,3_4_0_0,2022-03-01T09:08:07.108Z,,,,0,V,2000.0400000000009,timeout,,,,38787.19999998808,38785.904,36785.864,36788.69999998808,36802.531,38802.571,,white
,Stimulus,canvas.Screen,3_4_0_1,2022-03-01T09:08:07.210Z,,,,0,V,100.00199999999313,timeout,,,,38888.69999998808,38885.906,38785.904,38787.60000002384,38802.571,38902.573,,white
,Reaction,canvas.Screen,3_4_0_2,2022-03-01T09:08:07.499Z,,,,0,V,270.6269999880824,response,,stim_detected,keydown(Space),39178.19999998808,39173.19999998808,38885.906,38889,38902.573,39185.912,,white
,Trial,flow.Sequence,3_4_0,2022-03-01T09:08:07.500Z,,,,0,V,2370.6689999880764,completion,,,,39178.5,39173.19999998808,36785.864,36788.60000002384,36802.531,39185.912,,white
,Frame,canvas.Frame,3_4,2022-03-01T09:08:07.500Z,,,,0,V,2376.069000023839,,,,,39178.69999998808,39178.60000002384,36785.864,36787.69999998808,36802.531,39185.912,,white
,Fixation,canvas.Screen,3_5_0_0,2022-03-01T09:08:09.493Z,,,,1,VA,2000.0400000000009,timeout,,,,41172,41169.285,39169.245,39179.89999997616,39185.912,41185.952,,white
,Stimulus,canvas.Screen,3_5_0_1,2022-03-01T09:08:09.593Z,,,,1,VA,100.00200000000041,timeout,,,,41271.60000002384,41269.287,41169.285,41172.39999997616,41185.952,41285.954,,white
,Reaction,canvas.Screen,3_5_0_2,2022-03-01T09:08:09.799Z,,,,1,VA,187.0460000000021,response,,stim_detected,keydown(Space),41477.89999997616,41473,41269.287,41271.80000001192,41285.954,41485.958,,white
,Trial,flow.Sequence,3_5_0,2022-03-01T09:08:09.799Z,,,,1,VA,2287.0880000000034,completion,,,,41478.19999998808,41473,39169.245,39179.89999997616,39185.912,41485.958,,white
,Frame,canvas.Frame,3_5,2022-03-01T09:08:09.800Z,,,,1,VA,2292.3880000119243,,,,,41478.39999997616,41478.30000001192,39169.245,39178.89999997616,39185.912,41485.958,,white
,Fixation,canvas.Screen,3_6_0_0,2022-03-01T09:08:11.892Z,,,,1,A,2100.0420000000013,timeout,,,,43570.39999997616,43569.333,41469.291,41480.10000002384,41485.958,43586,,grey
,Stimulus,canvas.Screen,3_6_0_1,2022-03-01T09:08:11.993Z,,,,1,A,100.00200000000041,timeout,,,,43672,43669.335,43569.333,43570.60000002384,43586,43686.002,,grey
,Reaction,canvas.Screen,3_6_0_2,2022-03-01T09:08:13.493Z,,,,1,A,1500.0299999999988,timeout,,,,45171.5,45169.365,43669.335,43672.19999998808,43686.002,45186.032,,grey
,Trial,flow.Sequence,3_6_0,2022-03-01T09:08:13.493Z,,,,1,A,3683.4069999999992,completion,,,,45171.69999998808,45169.365,41469.291,41480,41485.958,45186.032,,grey
,Frame,canvas.Frame,3_6,2022-03-01T09:08:13.493Z,,,,1,A,3685.842000011922,,,,,45172,45171.80000001192,41469.291,41478.5,41485.958,45202.699,,grey
,Fixation,canvas.Screen,3_7_0_0,2022-03-01T09:08:15.843Z,,,,1,A,2333.3799999999974,timeout,,,,47522.10000002384,47519.412,45186.032,45173,45202.699,47536.079,,grey
,Stimulus,canvas.Screen,3_7_0_1,2022-03-01T09:08:15.943Z,,,,1,A,100.00200000000041,timeout,,,,47622.19999998808,47619.414,47519.412,47522.39999997616,47536.079,47636.081,,grey
,Reaction,canvas.Screen,3_7_0_2,2022-03-01T09:08:16.974Z,,,,1,A,1011.7190000119226,response,,stim_detected,keydown(Space),48652.5,48647.80000001192,47619.414,47622.39999997616,47636.081,48669.435,,grey
,Trial,flow.Sequence,3_7_0,2022-03-01T09:08:16.974Z,,,,1,A,3445.1010000119204,completion,,,,48652.89999997616,48647.80000001192,45186.032,45173,45202.699,48669.435,,grey
,Frame,canvas.Frame,3_7,2022-03-01T09:08:16.974Z,,,,1,A,3450.3009999999995,,,,,48653,48653,45186.032,45172.10000002384,45202.699,48669.435,,grey
,Fixation,canvas.Screen,3_8_0_0,2022-03-01T09:08:19.226Z,,,,0,V,2250.0450000000055,timeout,,,,50905.10000002384,50902.813,48652.768,48654.10000002384,48669.435,50919.48,,white
,Stimulus,canvas.Screen,3_8_0_1,2022-03-01T09:08:19.326Z,,,,0,V,100.00200000000041,timeout,,,,51004.80000001192,51002.815,50902.813,50905.5,50919.48,51019.482,,white
,Reaction,canvas.Screen,3_8_0_2,2022-03-01T09:08:19.996Z,,,,0,V,651.2179999880755,response,,stim_detected,keydown(Space),51675.10000002384,51670.69999998808,51002.815,51004.89999997616,51019.482,51686.162,,white
,Trial,flow.Sequence,3_8_0,2022-03-01T09:08:19.997Z,,,,0,V,3001.2649999880814,completion,,,,51675.39999997616,51670.69999998808,48652.768,48654.10000002384,48669.435,51686.162,,white
,Frame,canvas.Frame,3_8,2022-03-01T09:08:19.997Z,,,,0,V,3006.0650000000023,,,,,51675.60000002384,51675.5,48652.768,48653.19999998808,48669.435,51686.162,,white
,Fixation,canvas.Screen,3_9_0_0,2022-03-01T09:08:22.259Z,,,,0,V,2266.712000000007,timeout,,,,53938.10000002384,53936.207,51669.495,51676.80000001192,51686.162,53952.874,,white
,Stimulus,canvas.Screen,3_9_0_1,2022-03-01T09:08:22.359Z,,,,0,V,100.00199999999313,timeout,,,,54038.19999998808,54036.209,53936.207,53938.30000001192,53952.874,54052.876,,white
,Reaction,canvas.Screen,3_9_0_2,2022-03-01T09:08:22.814Z,,,,0,V,435.62400000000343,response,,stim_detected,keydown(Space),54493,54488.5,54036.209,54038.39999997616,54052.876,54502.885,,white
,Trial,flow.Sequence,3_9_0,2022-03-01T09:08:22.815Z,,,,0,V,2802.3380000000034,completion,,,,54493.39999997616,54488.5,51669.495,51676.69999998808,51686.162,54502.885,,white
,Frame,canvas.Frame,3_9,2022-03-01T09:08:22.815Z,,,,0,V,2807.3380000000034,,,,,54493.60000002384,54493.5,51669.495,51675.80000001192,51686.162,54502.885,,white
,Fixation,canvas.Screen,3_10_0_0,2022-03-01T09:08:24.993Z,,,,0,V,2183.3770000000004,timeout,,,,56671.69999998808,56669.595,54486.218,54494.89999997616,54502.885,56686.262,,white
,Stimulus,canvas.Screen,3_10_0_1,2022-03-01T09:08:25.092Z,,,,0,V,100.00200000000041,timeout,,,,56771,56769.597,56669.595,56671.89999997616,56686.262,56786.264,,white
,Reaction,canvas.Screen,3_10_0_2,2022-03-01T09:08:25.529Z,,,,0,V,417.0360000119181,response,,stim_detected,keydown(Space),57207.80000001192,57203.30000001192,56769.597,56771.10000002384,56786.264,57219.606,,white
,Trial,flow.Sequence,3_10_0,2022-03-01T09:08:25.529Z,,,,0,V,2700.415000011919,completion,,,,57208,57203.30000001192,54486.218,54494.80000001192,54502.885,57219.606,,white
,Frame,canvas.Frame,3_10,2022-03-01T09:08:25.530Z,,,,0,V,2705.314999988077,,,,,57208.19999998808,57208.19999998808,54486.218,54493.69999998808,54502.885,57219.606,,white
,Fixation,canvas.Screen,3_11_0_0,2022-03-01T09:08:27.210Z,,,,0,V,1683.3669999999984,timeout,,,,58888.80000001192,58886.306,57202.939,57209.30000001192,57219.606,58902.973,,white
,Stimulus,canvas.Screen,3_11_0_1,2022-03-01T09:08:27.310Z,,,,0,V,100.00200000000041,timeout,,,,58988.80000001192,58986.308,58886.306,58889.10000002384,58902.973,59002.975,,white
,Reaction,canvas.Screen,3_11_0_2,2022-03-01T09:08:27.701Z,,,,0,V,372.2249999880805,response,,stim_detected,keydown(Space),59380,59375.19999998808,58986.308,58989.10000002384,59002.975,59386.316,,white
,Trial,flow.Sequence,3_11_0,2022-03-01T09:08:27.702Z,,,,0,V,2155.5939999880793,completion,,,,59380.30000001192,59375.19999998808,57202.939,57209.19999998808,57219.606,59386.316,,white
,Frame,canvas.Frame,3_11,2022-03-01T09:08:27.702Z,,,,0,V,2160.7939999761584,,,,,59380.60000002384,59380.39999997616,57202.939,57208.39999997616,57219.606,59386.316,,white
,Fixation,canvas.Screen,3_12_0_0,2022-03-01T09:08:29.959Z,,,,1,A,2266.7119999999995,timeout,,,,61637.30000001192,61636.361,59369.649,59381.69999998808,59386.316,61653.028,,grey
,Stimulus,canvas.Screen,3_12_0_1,2022-03-01T09:08:30.061Z,,,,1,A,100.00200000000041,timeout,,,,61739.10000002384,61736.363,61636.361,61637.5,61653.028,61753.03,,grey
,Reaction,canvas.Screen,3_12_0_2,2022-03-01T09:08:30.477Z,,,,1,A,398.070000023843,response,,stim_detected,keydown(Space),62155.69999998808,62151.10000002384,61736.363,61739.30000001192,61753.03,62169.705,,grey
,Trial,flow.Sequence,3_12_0,2022-03-01T09:08:30.477Z,,,,1,A,2764.784000023843,completion,,,,62156,62151.10000002384,59369.649,59381.60000002384,59386.316,62169.705,,grey
,Frame,canvas.Frame,3_12,2022-03-01T09:08:30.478Z,,,,1,A,2769.984000011922,,,,,62156.39999997616,62156.30000001192,59369.649,59380.69999998808,59386.316,62169.705,,grey
,Fixation,canvas.Screen,3_13_0_0,2022-03-01T09:08:31.993Z,,,,1,VA,1533.3640000000014,timeout,,,,63671.89999997616,63669.735,62153.038,62157.39999997616,62169.705,63703.069,,white
,Stimulus,canvas.Screen,3_13_0_1,2022-03-01T09:08:32.110Z,,,,1,VA,100.00200000000041,timeout,,,,63788.30000001192,63786.404,63669.735,63672.10000002384,63703.069,63803.071,,white
,Reaction,canvas.Screen,3_13_0_2,2022-03-01T09:08:32.427Z,,,,1,VA,298.7290000119174,response,,stim_detected,keydown(Space),64105.10000002384,64101.80000001192,63786.404,63788.5,63803.071,64119.744,,white
,Trial,flow.Sequence,3_13_0,2022-03-01T09:08:32.427Z,,,,1,VA,1932.0950000119192,completion,,,,64105.39999997616,64101.80000001192,62153.038,62157.30000001192,62169.705,64119.744,,white
,Frame,canvas.Frame,3_13,2022-03-01T09:08:32.427Z,,,,1,VA,1935.7949999999983,,,,,64105.5,64105.5,62153.038,62156.5,62169.705,64119.744,,white
,Fixation,canvas.Screen,3_14_0_0,2022-03-01T09:08:34.442Z,,,,0,V,2016.7070000000022,timeout,,,,66120.80000001192,66119.784,64103.077,64106.19999998808,64119.744,66136.451,,white
,Stimulus,canvas.Screen,3_14_0_1,2022-03-01T09:08:34.543Z,,,,0,V,100.00199999999313,timeout,,,,66221.80000001192,66219.786,66119.784,66120.89999997616,66136.451,66236.453,,white
,Reaction,canvas.Screen,3_14_0_2,2022-03-01T09:08:35.151Z,,,,0,V,586.246999988085,response,,stim_detected,keydown(Space),66829.5,66822.69999998808,66219.786,66222,66236.453,66836.465,,white
,Trial,flow.Sequence,3_14_0,2022-03-01T09:08:35.151Z,,,,0,V,2702.9559999880803,completion,,,,66829.80000001192,66822.69999998808,64103.077,64106.10000002384,64119.744,66836.465,,white
,Frame,canvas.Frame,3_14,2022-03-01T09:08:35.151Z,,,,0,V,2710.1559999761594,,,,,66829.89999997616,66829.89999997616,64103.077,64105.60000002384,64119.744,66836.465,,white
,Fixation,canvas.Screen,3_15_0_0,2022-03-01T09:08:37.593Z,,,,1,A,2450.048999999999,timeout,,,,69271,69269.847,66819.798,66830.80000001192,66836.465,69286.514,,grey
,Stimulus,canvas.Screen,3_15_0_1,2022-03-01T09:08:37.693Z,,,,1,A,100.00200000000768,timeout,,,,69371.30000001192,69369.849,69269.847,69271.30000001192,69286.514,69386.516,,grey
,Reaction,canvas.Screen,3_15_0_2,2022-03-01T09:08:38.127Z,,,,1,A,413.98399999999674,response,,stim_detected,keydown(Space),69805.39999997616,69800.5,69369.849,69371.5,69386.516,69819.858,,grey
,Trial,flow.Sequence,3_15_0,2022-03-01T09:08:38.127Z,,,,1,A,2964.0350000000035,completion,,,,69805.80000001192,69800.5,66819.798,66830.80000001192,66836.465,69819.858,,grey
,Frame,canvas.Frame,3_15,2022-03-01T09:08:38.128Z,,,,1,A,2969.5350000000035,,,,,69806.10000002384,69806,66819.798,66830.10000002384,66836.465,69819.858,,grey
,Fixation,canvas.Screen,3_16_0_0,2022-03-01T09:08:40.627Z,,,,0,V,2500.050000000003,timeout,,,,72305.69999998808,72303.241,69803.191,69807.19999998808,69819.858,72319.908,,white
,Stimulus,canvas.Screen,3_16_0_1,2022-03-01T09:08:40.727Z,,,,0,V,100.00200000000768,timeout,,,,72405.69999998808,72403.243,72303.241,72305.89999997616,72319.908,72419.91,,white
,Reaction,canvas.Screen,3_16_0_2,2022-03-01T09:08:41.311Z,,,,0,V,565.4899999761546,response,,stim_detected,keydown(Space),72989.80000001192,72985.39999997616,72403.243,72406,72419.91,73003.255,,white
,Trial,flow.Sequence,3_16_0,2022-03-01T09:08:41.312Z,,,,0,V,3165.5419999761652,completion,,,,72990.5,72985.39999997616,69803.191,69807.10000002384,69819.858,73003.255,,white
,Frame,canvas.Frame,3_16,2022-03-01T09:08:41.312Z,,,,0,V,3170.742000023849,,,,,72990.80000001192,72990.60000002384,69803.191,69806.30000001192,69819.858,73003.255,,white
,Fixation,canvas.Screen,3_17_0_0,2022-03-01T09:08:42.927Z,,,,0,V,1616.6989999999932,timeout,,,,74605.19999998808,74603.287,72986.588,72991.89999997616,73003.255,74619.954,,white
,Stimulus,canvas.Screen,3_17_0_1,2022-03-01T09:08:43.027Z,,,,0,V,100.00200000000768,timeout,,,,74705.5,74703.289,74603.287,74605.39999997616,74619.954,74719.956,,white
,Reaction,canvas.Screen,3_17_0_2,2022-03-01T09:08:43.467Z,,,,0,V,421.2439999880735,response,,stim_detected,keydown(Space),75145.5,75141.19999998808,74703.289,74705.60000002384,74719.956,75153.298,,white
,Trial,flow.Sequence,3_17_0,2022-03-01T09:08:43.467Z,,,,0,V,2137.9449999880744,completion,,,,75145.80000001192,75141.19999998808,72986.588,72991.89999997616,73003.255,75153.298,,white
,Frame,canvas.Frame,3_17,2022-03-01T09:08:43.468Z,,,,0,V,2142.7449999999953,,,,,75146.10000002384,75146,72986.588,72991,73003.255,75153.298,,white
,Fixation,canvas.Screen,3_18_0_0,2022-03-01T09:08:45.677Z,,,,1,A,2216.7110000000102,timeout,,,,77355.69999998808,77353.342,75136.631,75147.19999998808,75153.298,77370.009,,grey
,Stimulus,canvas.Screen,3_18_0_1,2022-03-01T09:08:45.777Z,,,,1,A,100.00199999999313,timeout,,,,77455.39999997616,77453.344,77353.342,77355.89999997616,77370.009,77470.011,,grey
,Reaction,canvas.Screen,3_18_0_2,2022-03-01T09:08:46.289Z,,,,1,A,493.08900002384325,response,,stim_detected,keydown(Space),77967.60000002384,77963.10000002384,77453.344,77455.60000002384,77470.011,77970.021,,grey
,Trial,flow.Sequence,3_18_0,2022-03-01T09:08:46.289Z,,,,1,A,2809.8020000238466,completion,,,,77967.89999997616,77963.10000002384,75136.631,75147.19999998808,75153.298,77970.021,,grey
,Frame,canvas.Frame,3_18,2022-03-01T09:08:46.290Z,,,,1,A,2814.601999976163,,,,,77968.10000002384,77967.89999997616,75136.631,75146.19999998808,75153.298,77970.021,,grey
,Fixation,canvas.Screen,3_19_0_0,2022-03-01T09:08:47.826Z,,,,1,VA,1550.0310000000027,timeout,,,,79504.80000001192,79503.385,77953.354,77969.19999998808,77970.021,79520.052,,white
,Stimulus,canvas.Screen,3_19_0_1,2022-03-01T09:08:47.927Z,,,,1,VA,100.00200000000768,timeout,,,,79605.30000001192,79603.387,79503.385,79505,79520.052,79620.054,,white
,Reaction,canvas.Screen,3_19_0_2,2022-03-01T09:08:48.233Z,,,,1,VA,286.9459999999963,response,,stim_detected,keydown(Space),79911.60000002384,79907,79603.387,79605.60000002384,79620.054,79920.06,,white
,Trial,flow.Sequence,3_19_0,2022-03-01T09:08:48.234Z,,,,1,VA,1936.9790000000066,completion,,,,79911.89999997616,79907,77953.354,77969.10000002384,77970.021,79920.06,,white
,Frame,canvas.Frame,3_19,2022-03-01T09:08:48.234Z,,,,1,VA,1941.9790000000066,,,,,79912.19999998808,79912,77953.354,77968.30000001192,77970.021,79920.06,,white
,Fixation,canvas.Screen,3_20_0_0,2022-03-01T09:08:49.910Z,,,,1,VA,1683.3669999999984,timeout,,,,81588.69999998808,81586.76,79903.393,79913.39999997616,79920.06,81603.427,,white
,Stimulus,canvas.Screen,3_20_0_1,2022-03-01T09:08:50.011Z,,,,1,VA,100.00200000000768,timeout,,,,81689.10000002384,81686.762,81586.76,81589,81603.427,81703.429,,white
,Reaction,canvas.Screen,3_20_0_2,2022-03-01T09:08:50.291Z,,,,1,VA,261.5709999999963,response,,stim_detected,keydown(Space),81969.5,81965,81686.762,81689.30000001192,81703.429,81986.768,,white
,Trial,flow.Sequence,3_20_0,2022-03-01T09:08:50.291Z,,,,1,VA,2044.9400000000023,completion,,,,81969.80000001192,81965,79903.393,79913.30000001192,79920.06,81986.768,,white
,Frame,canvas.Frame,3_20,2022-03-01T09:08:50.292Z,,,,1,VA,2049.8399999761605,,,,,81969.89999997616,81969.89999997616,79903.393,79912.30000001192,79920.06,81986.768,,white
,Fixation,canvas.Screen,3_21_0_0,2022-03-01T09:08:52.677Z,,,,1,VA,2383.3810000000085,timeout,,,,84355.39999997616,84353.482,81970.101,81971,81986.768,84370.149,,white
,Stimulus,canvas.Screen,3_21_0_1,2022-03-01T09:08:52.777Z,,,,1,VA,100.00199999999313,timeout,,,,84455.19999998808,84453.484,84353.482,84355.69999998808,84370.149,84470.151,,white
,Reaction,canvas.Screen,3_21_0_2,2022-03-01T09:08:52.986Z,,,,1,VA,189.74899997616012,response,,stim_detected,keydown(Space),84664.30000001192,84659.89999997616,84453.484,84455.5,84470.151,84670.155,,white
,Trial,flow.Sequence,3_21_0,2022-03-01T09:08:52.986Z,,,,1,VA,2673.1319999761618,completion,,,,84664.60000002384,84659.89999997616,81970.101,81971,81986.768,84670.155,,white
,Frame,canvas.Frame,3_21,2022-03-01T09:08:52.987Z,,,,1,VA,2678.0320000119245,,,,,84664.89999997616,84664.80000001192,81970.101,81970.10000002384,81986.768,84670.155,,white
,Fixation,canvas.Screen,3_22_0_0,2022-03-01T09:08:55.394Z,,,,1,A,2433.381999999998,timeout,,,,87072.5,87070.203,84653.488,84666,84670.155,87103.537,,grey
,Stimulus,canvas.Screen,3_22_0_1,2022-03-01T09:08:55.511Z,,,,1,A,100.00200000000768,timeout,,,,87188.89999997616,87186.872,87070.203,87072.69999998808,87103.537,87203.539,,grey
,Reaction,canvas.Screen,3_22_0_2,2022-03-01T09:08:55.846Z,,,,1,A,316.16099998807476,response,,stim_detected,keydown(Space),87524.19999998808,87519.69999998808,87186.872,87189.10000002384,87203.539,87536.879,,grey
,Trial,flow.Sequence,3_22_0,2022-03-01T09:08:55.846Z,,,,1,A,2849.5449999880802,completion,,,,87524.60000002384,87519.69999998808,84653.488,84665.89999997616,84670.155,87536.879,,grey
,Frame,canvas.Frame,3_22,2022-03-01T09:08:55.846Z,,,,1,A,2854.445000023843,,,,,87524.80000001192,87524.60000002384,84653.488,84665.10000002384,84670.155,87536.879,,grey
,Fixation,canvas.Screen,3_23_0_0,2022-03-01T09:08:58.310Z,,,,1,VA,2466.7160000000003,timeout,,,,89988.60000002384,89986.928,87520.212,87525.80000001192,87536.879,90003.595,,white
,Stimulus,canvas.Screen,3_23_0_1,2022-03-01T09:08:58.411Z,,,,1,VA,100.00199999999313,timeout,,,,90089.30000001192,90086.93,89986.928,89988.80000001192,90003.595,90103.597,,white
,Reaction,canvas.Screen,3_23_0_2,2022-03-01T09:08:58.693Z,,,,1,VA,263.00300002384756,response,,stim_detected,keydown(Space),90371.39999997616,90366.60000002384,90086.93,90089.60000002384,90103.597,90386.936,,white
,Trial,flow.Sequence,3_23_0,2022-03-01T09:08:58.693Z,,,,1,VA,2829.721000023841,completion,,,,90371.69999998808,90366.60000002384,87520.212,87525.80000001192,87536.879,90386.936,,white
,Frame,canvas.Frame,3_23,2022-03-01T09:08:58.694Z,,,,1,VA,2834.92100001192,,,,,90372,90371.80000001192,87520.212,87524.89999997616,87536.879,90386.936,,white
,Fixation,canvas.Screen,3_24_0_0,2022-03-01T09:09:00.394Z,,,,1,A,1700.0339999999997,timeout,,,,92072.5,92070.303,90370.269,90373.5,90386.936,92086.97,,grey
,Stimulus,canvas.Screen,3_24_0_1,2022-03-01T09:09:00.494Z,,,,1,A,100.00199999999313,timeout,,,,92172.69999998808,92170.305,92070.303,92072.60000002384,92086.97,92186.972,,grey
,Reaction,canvas.Screen,3_24_0_2,2022-03-01T09:09:00.834Z,,,,1,A,320.42799997616385,response,,stim_detected,keydown(Space),92511.80000001192,92507.39999997616,92170.305,92173,92186.972,92520.312,,grey
,Trial,flow.Sequence,3_24_0,2022-03-01T09:09:00.834Z,,,,1,A,2120.4639999761566,completion,,,,92512.19999998808,92507.39999997616,90370.269,90373.39999997616,90386.936,92520.312,,grey
,Frame,canvas.Frame,3_24,2022-03-01T09:09:00.834Z,,,,1,A,2125.2639999880776,,,,,92512.30000001192,92512.19999998808,90370.269,90372.10000002384,90386.936,92520.312,,grey
,Fixation,canvas.Screen,3_25_0_0,2022-03-01T09:09:03.138Z,,,,0,V,2266.7119999999995,timeout,,,,94816.19999998808,94770.357,92503.645,92513.5,92520.312,94787.024,,white
,Stimulus,canvas.Screen,3_25_0_1,2022-03-01T09:09:03.212Z,,,,0,V,100.00199999999313,timeout,,,,94890.39999997616,94870.359,94770.357,94816.39999997616,94787.024,94887.026,,white
,Reaction,canvas.Screen,3_25_0_2,2022-03-01T09:09:04.695Z,,,,0,V,1500.0299999999988,timeout,,,,96372.80000001192,96370.389,94870.359,94890.5,94887.026,96387.056,,white
,Trial,flow.Sequence,3_25_0,2022-03-01T09:09:04.695Z,,,,0,V,3850.07699999999,completion,,,,96373.10000002384,96370.389,92503.645,92513.30000001192,92520.312,96387.056,,white
,Frame,canvas.Frame,3_25,2022-03-01T09:09:04.695Z,,,,0,V,3852.9880000119156,,,,,96373.39999997616,96373.30000001192,92503.645,92512.5,92520.312,96403.723,,white
,Fixation,canvas.Screen,3_26_0_0,2022-03-01T09:09:06.544Z,,,,1,A,1833.3699999999953,timeout,,,,98222,98220.426,96387.056,96374.39999997616,96403.723,98237.093,,grey
,Stimulus,canvas.Screen,3_26_0_1,2022-03-01T09:09:06.644Z,,,,1,A,100.00200000000768,timeout,,,,98322.60000002384,98320.428,98220.426,98222.10000002384,98237.093,98337.095,,grey
,Reaction,canvas.Screen,3_26_0_2,2022-03-01T09:09:06.947Z,,,,1,A,283.5050000238407,response,,stim_detected,keydown(Space),98625.19999998808,98620.60000002384,98320.428,98322.89999997616,98337.095,98637.101,,grey
,Trial,flow.Sequence,3_26_0,2022-03-01T09:09:06.947Z,,,,1,A,2216.8770000238437,completion,,,,98625.5,98620.60000002384,96387.056,96374.39999997616,96403.723,98637.101,,grey
,Frame,canvas.Frame,3_26,2022-03-01T09:09:06.948Z,,,,1,A,2221.8770000238437,,,,,98625.69999998808,98625.60000002384,96387.056,96373.60000002384,96403.723,98637.101,,grey
,Fixation,canvas.Screen,3_27_0_0,2022-03-01T09:09:09.345Z,,,,1,VA,2400.04800000001,timeout,,,,101022.89999997616,101020.482,98620.434,98626.69999998808,98637.101,101037.149,,white
,Stimulus,canvas.Screen,3_27_0_1,2022-03-01T09:09:09.445Z,,,,1,VA,100.00199999999313,timeout,,,,101123.30000001192,101120.484,101020.482,101023.19999998808,101037.149,101137.151,,white
,Reaction,canvas.Screen,3_27_0_2,2022-03-01T09:09:09.685Z,,,,1,VA,220.94900002384384,response,,stim_detected,keydown(Space),101363.19999998808,101358.10000002384,101120.484,101123.89999997616,101137.151,101370.489,,white
,Trial,flow.Sequence,3_27_0,2022-03-01T09:09:09.686Z,,,,1,VA,2720.9990000238467,completion,,,,101363.89999997616,101358.10000002384,98620.434,98626.69999998808,98637.101,101370.489,,white
,Frame,canvas.Frame,3_27,2022-03-01T09:09:09.686Z,,,,1,VA,2726.798999976163,,,,,101364.10000002384,101363.89999997616,98620.434,98625.89999997616,98637.101,101370.489,,white
,Fixation,canvas.Screen,3_28_0_0,2022-03-01T09:09:11.678Z,,,,1,VA,2000.0399999999936,timeout,,,,103356.19999998808,103353.862,101353.822,101365.30000001192,101370.489,103370.529,,white
,Stimulus,canvas.Screen,3_28_0_1,2022-03-01T09:09:11.778Z,,,,1,VA,100.00200000000768,timeout,,,,103456.30000001192,103453.864,103353.862,103356.39999997616,103370.529,103470.531,,white
,Reaction,canvas.Screen,3_28_0_2,2022-03-01T09:09:12.008Z,,,,1,VA,211.46899999999732,response,,stim_detected,keydown(Space),103686.39999997616,103682,103453.864,103456.69999998808,103470.531,103703.869,,white
,Trial,flow.Sequence,3_28_0,2022-03-01T09:09:12.009Z,,,,1,VA,2311.5109999999986,completion,,,,103686.60000002384,103682,101353.822,101365.19999998808,101370.489,103703.869,,white
,Frame,canvas.Frame,3_28,2022-03-01T09:09:12.009Z,,,,1,VA,2316.3110000119195,,,,,103686.89999997616,103686.80000001192,101353.822,101364.30000001192,101370.489,103703.869,,white
,Fixation,canvas.Screen,3_29_0_0,2022-03-01T09:09:14.361Z,,,,1,A,2350.0469999999914,timeout,,,,106039.30000001192,106037.249,103687.202,103688.10000002384,103703.869,106053.916,,grey
,Stimulus,canvas.Screen,3_29_0_1,2022-03-01T09:09:14.462Z,,,,1,A,100.00200000000768,timeout,,,,106140.10000002384,106137.251,106037.249,106039.5,106053.916,106153.918,,grey
,Reaction,canvas.Screen,3_29_0_2,2022-03-01T09:09:14.723Z,,,,1,A,242.8820000119158,response,,stim_detected,keydown(Space),106401.60000002384,106396.80000001192,106137.251,106140.30000001192,106153.918,106403.923,,grey
,Trial,flow.Sequence,3_29_0,2022-03-01T09:09:14.724Z,,,,1,A,2692.931000011915,completion,,,,106401.89999997616,106396.80000001192,103687.202,103688,103703.869,106403.923,,grey
,Frame,canvas.Frame,3_29,2022-03-01T09:09:14.724Z,,,,1,A,2698.030999976152,,,,,106402.19999998808,106401.89999997616,103687.202,103687.10000002384,103703.869,106403.923,,grey
,Fixation,canvas.Screen,3_30_0_0,2022-03-01T09:09:16.578Z,,,,0,V,1866.703999999998,timeout,,,,108256,108253.96,106387.256,106403.19999998808,106403.923,108270.627,,white
,Stimulus,canvas.Screen,3_30_0_1,2022-03-01T09:09:16.678Z,,,,0,V,100.00200000000768,timeout,,,,108356,108353.962,108253.96,108256.19999998808,108270.627,108370.629,,white
,Reaction,canvas.Screen,3_30_0_2,2022-03-01T09:09:16.970Z,,,,0,V,273.8709999999992,response,,stim_detected,keydown(Space),108648.19999998808,108644.5,108353.962,108356.30000001192,108370.629,108653.968,,white
,Trial,flow.Sequence,3_30_0,2022-03-01T09:09:16.970Z,,,,0,V,2240.577000000005,completion,,,,108648.39999997616,108644.5,106387.256,106403.19999998808,106403.923,108653.968,,white
,Frame,canvas.Frame,3_30,2022-03-01T09:09:16.970Z,,,,0,V,2244.577000000005,,,,,108648.60000002384,108648.5,106387.256,106402.30000001192,106403.923,108653.968,,white
,Fixation,canvas.Screen,3_31_0_0,2022-03-01T09:09:19.378Z,,,,1,VA,2416.715000000011,timeout,,,,111055.69999998808,111054.016,108637.301,108649.39999997616,108653.968,111070.683,,white
,Stimulus,canvas.Screen,3_31_0_1,2022-03-01T09:09:19.477Z,,,,1,VA,100.00199999999313,timeout,,,,111155.19999998808,111154.018,111054.016,111056,111070.683,111170.685,,white
,Reaction,canvas.Screen,3_31_0_2,2022-03-01T09:09:19.687Z,,,,1,VA,190.71499997616047,response,,stim_detected,keydown(Space),111365,111361.39999997616,111154.018,111155.30000001192,111170.685,111370.689,,white
,Trial,flow.Sequence,3_31_0,2022-03-01T09:09:19.687Z,,,,1,VA,2707.4319999761647,completion,,,,111365.30000001192,111361.39999997616,108637.301,108649.39999997616,108653.968,111370.689,,white
,Frame,canvas.Frame,3_31,2022-03-01T09:09:19.687Z,,,,1,VA,2711.4319999761647,,,,,111365.5,111365.39999997616,108637.301,108648.69999998808,108653.968,111370.689,,white
,Fixation,canvas.Screen,3_32_0_0,2022-03-01T09:09:21.294Z,,,,1,VA,1616.6990000000078,timeout,,,,112972.60000002384,112970.721,111354.022,111366.30000001192,111370.689,112987.388,,white
,Stimulus,canvas.Screen,3_32_0_1,2022-03-01T09:09:21.395Z,,,,1,VA,100.00199999999313,timeout,,,,113073.30000001192,113070.723,112970.721,112972.89999997616,112987.388,113087.39,,white
,Reaction,canvas.Screen,3_32_0_2,2022-03-01T09:09:21.600Z,,,,1,VA,186.00999997615872,response,,stim_detected,keydown(Space),113278,113273.39999997616,113070.723,113073.5,113087.39,113287.394,,white
,Trial,flow.Sequence,3_32_0,2022-03-01T09:09:21.600Z,,,,1,VA,1902.7109999761597,completion,,,,113278.30000001192,113273.39999997616,111354.022,111366.19999998808,111370.689,113287.394,,white
,Frame,canvas.Frame,3_32,2022-03-01T09:09:21.600Z,,,,1,VA,1907.8110000000015,,,,,113278.60000002384,113278.5,111354.022,111365.5,111370.689,113287.394,,white
,Fixation,canvas.Screen,3_33_0_0,2022-03-01T09:09:23.245Z,,,,1,VA,1650.0329999999958,timeout,,,,114922.69999998808,114920.76,113270.727,113279.80000001192,113287.394,114937.427,,white
,Stimulus,canvas.Screen,3_33_0_1,2022-03-01T09:09:23.345Z,,,,1,VA,100.00200000000768,timeout,,,,115023.10000002384,115020.762,114920.76,114923,114937.427,115037.429,,white
,Reaction,canvas.Screen,3_33_0_2,2022-03-01T09:09:23.549Z,,,,1,VA,184.8710000119172,response,,stim_detected,keydown(Space),115226.60000002384,115222.30000001192,115020.762,115023.19999998808,115037.429,115237.433,,white
,Trial,flow.Sequence,3_33_0,2022-03-01T09:09:23.549Z,,,,1,VA,1934.9060000119207,completion,,,,115226.89999997616,115222.30000001192,113270.727,113279.69999998808,113287.394,115237.433,,white
,Frame,canvas.Frame,3_33,2022-03-01T09:09:23.549Z,,,,1,VA,1939.505999976158,,,,,115227.19999998808,115226.89999997616,113270.727,113278.69999998808,113287.394,115237.433,,white
,Fixation,canvas.Screen,3_34_0_0,2022-03-01T09:09:25.578Z,,,,1,VA,2033.3739999999962,timeout,,,,117256.10000002384,117254.14,115220.766,115228.19999998808,115237.433,117270.807,,white
,Stimulus,canvas.Screen,3_34_0_1,2022-03-01T09:09:25.698Z,,,,1,VA,100.00199999999313,timeout,,,,117375.69999998808,117354.142,117254.14,117256.30000001192,117270.807,117370.809,,white
,Reaction,canvas.Screen,3_34_0_2,2022-03-01T09:09:25.888Z,,,,1,VA,190.39099998808524,response,,stim_detected,keydown(Space),117565.69999998808,117561.19999998808,117354.142,117375.89999997616,117370.809,117570.813,,white
,Trial,flow.Sequence,3_34_0,2022-03-01T09:09:25.888Z,,,,1,VA,2323.7669999880745,completion,,,,117566.10000002384,117561.19999998808,115220.766,115228,115237.433,117570.813,,white
,Frame,canvas.Frame,3_34,2022-03-01T09:09:25.888Z,,,,1,VA,2328.7669999880745,,,,,117566.30000001192,117566.19999998808,115220.766,115227.19999998808,115237.433,117570.813,,white
,Fixation,canvas.Screen,3_35_0_0,2022-03-01T09:09:27.845Z,,,,1,VA,1966.7060000000056,timeout,,,,119523.10000002384,119520.852,117554.146,117567.39999997616,117570.813,119537.519,,white
,Stimulus,canvas.Screen,3_35_0_1,2022-03-01T09:09:27.945Z,,,,1,VA,100.00199999999313,timeout,,,,119622.80000001192,119620.854,119520.852,119523.30000001192,119537.519,119637.521,,white
,Reaction,canvas.Screen,3_35_0_2,2022-03-01T09:09:29.445Z,,,,1,VA,1500.0300000000134,timeout,,,,121122.60000002384,121120.884,119620.854,119623,119637.521,121137.551,,white
,Trial,flow.Sequence,3_35_0,2022-03-01T09:09:29.445Z,,,,1,VA,3550.071000000011,completion,,,,121122.89999997616,121120.884,117554.146,117567.30000001192,117570.813,121137.551,,white
,Frame,canvas.Frame,3_35,2022-03-01T09:09:29.445Z,,,,1,VA,3552.1870000000054,,,,,121123.10000002384,121123,117554.146,117566.39999997616,117570.813,121154.218,,white
,Fixation,canvas.Screen,3_36_0_0,2022-03-01T09:09:31.595Z,,,,1,VA,2133.376000000004,timeout,,,,123273.19999998808,123270.927,121137.551,121124.10000002384,121154.218,123287.594,,white
,Stimulus,canvas.Screen,3_36_0_1,2022-03-01T09:09:31.695Z,,,,1,VA,100.00200000000768,timeout,,,,123372.89999997616,123370.929,123270.927,123273.30000001192,123287.594,123387.596,,white
,Reaction,canvas.Screen,3_36_0_2,2022-03-01T09:09:31.920Z,,,,1,VA,205.70400001191592,response,,stim_detected,keydown(Space),123598.19999998808,123593.30000001192,123370.929,123373,123387.596,123604.267,,white
,Trial,flow.Sequence,3_36_0,2022-03-01T09:09:31.921Z,,,,1,VA,2439.0820000119274,completion,,,,123598.5,123593.30000001192,121137.551,121124.10000002384,121154.218,123604.267,,white
,Frame,canvas.Frame,3_36,2022-03-01T09:09:31.921Z,,,,1,VA,2444.3820000238484,,,,,123598.69999998808,123598.60000002384,121137.551,121123.30000001192,121154.218,123604.267,,white
,Fixation,canvas.Screen,3_37_0_0,2022-03-01T09:09:34.127Z,,,,1,VA,2216.7109999999957,timeout,,,,125805.30000001192,125804.311,123587.6,123599.80000001192,123604.267,125820.978,,white
,Stimulus,canvas.Screen,3_37_0_1,2022-03-01T09:09:34.228Z,,,,1,VA,100.00199999999313,timeout,,,,125906.10000002384,125904.313,125804.311,125805.5,125820.978,125920.98,,white
,Reaction,canvas.Screen,3_37_0_2,2022-03-01T09:09:34.411Z,,,,1,VA,162.820000011925,response,,stim_detected,keydown(Space),126088.5,126083.80000001192,125904.313,125906.39999997616,125920.98,126104.317,,white
,Trial,flow.Sequence,3_37_0,2022-03-01T09:09:34.411Z,,,,1,VA,2479.533000011914,completion,,,,126088.89999997616,126083.80000001192,123587.6,123599.69999998808,123604.267,126104.317,,white
,Frame,canvas.Frame,3_37,2022-03-01T09:09:34.411Z,,,,1,VA,2484.632999976151,,,,,126089.10000002384,126088.89999997616,123587.6,123598.89999997616,123604.267,126104.317,,white
,Fixation,canvas.Screen,3_38_0_0,2022-03-01T09:09:36.478Z,,,,1,A,2066.7079999999987,timeout,,,,128156.39999997616,128154.358,126087.65,126090.19999998808,126104.317,128171.025,,grey
,Stimulus,canvas.Screen,3_38_0_1,2022-03-01T09:09:36.579Z,,,,1,A,100.00200000000768,timeout,,,,128256.60000002384,128254.36,128154.358,128156.60000002384,128171.025,128271.027,,grey
,Reaction,canvas.Screen,3_38_0_2,2022-03-01T09:09:36.807Z,,,,1,A,208.97299999999814,response,,stim_detected,keydown(Space),128484.5,128480,128254.36,128256.69999998808,128271.027,128487.698,,grey
,Trial,flow.Sequence,3_38_0,2022-03-01T09:09:36.807Z,,,,1,A,2375.6830000000045,completion,,,,128484.80000001192,128480,126087.65,126090.10000002384,126104.317,128487.698,,grey
,Frame,canvas.Frame,3_38,2022-03-01T09:09:36.807Z,,,,1,A,2380.5829999761627,,,,,128485.10000002384,128484.89999997616,126087.65,126089.30000001192,126104.317,128487.698,,grey
,Fixation,canvas.Screen,3_39_0_0,2022-03-01T09:09:38.612Z,,,,1,A,1816.702999999994,timeout,,,,130290.39999997616,130287.734,128471.031,128486.10000002384,128487.698,130304.401,,grey
,Stimulus,canvas.Screen,3_39_0_1,2022-03-01T09:09:38.712Z,,,,1,A,100.00200000000768,timeout,,,,130390,130387.736,130287.734,130290.5,130304.401,130404.403,,grey
,Reaction,canvas.Screen,3_39_0_2,2022-03-01T09:09:38.972Z,,,,1,A,241.39700001191522,response,,stim_detected,keydown(Space),130650.19999998808,130645.80000001192,130387.736,130390.19999998808,130404.403,130654.408,,grey
,Trial,flow.Sequence,3_39_0,2022-03-01T09:09:38.973Z,,,,1,A,2158.102000011917,completion,,,,130650.5,130645.80000001192,128471.031,128486,128487.698,130654.408,,grey
,Frame,canvas.Frame,3_39,2022-03-01T09:09:38.973Z,,,,1,A,2162.902000023838,,,,,130650.69999998808,130650.60000002384,128471.031,128485.19999998808,128487.698,130654.408,,grey
,Fixation,canvas.Screen,3_40_0_0,2022-03-01T09:09:40.512Z,,,,1,A,1550.0310000000172,timeout,,,,132190.19999998808,132187.772,130637.741,130651.80000001192,130654.408,132204.439,,grey
,Stimulus,canvas.Screen,3_40_0_1,2022-03-01T09:09:40.611Z,,,,1,A,100.00199999997858,timeout,,,,132289.39999997616,132287.774,132187.772,132190.39999997616,132204.439,132304.441,,grey
,Reaction,canvas.Screen,3_40_0_2,2022-03-01T09:09:40.922Z,,,,1,A,291.25899998808745,response,,stim_detected,keydown(Space),132600.19999998808,132595.69999998808,132287.774,132289.60000002384,132304.441,132604.447,,grey
,Trial,flow.Sequence,3_40_0,2022-03-01T09:09:40.923Z,,,,1,A,1941.2919999880833,completion,,,,132600.39999997616,132595.69999998808,130637.741,130651.69999998808,130654.408,132604.447,,grey
,Frame,canvas.Frame,3_40,2022-03-01T09:09:40.923Z,,,,1,A,1946.0920000000042,,,,,132600.69999998808,132600.5,130637.741,130650.80000001192,130654.408,132604.447,,grey
,Fixation,canvas.Screen,3_41_0_0,2022-03-01T09:09:42.962Z,,,,0,V,2050.0410000000265,timeout,,,,134639.89999997616,134637.821,132587.78,132601.80000001192,132604.447,134654.488,,white
,Stimulus,canvas.Screen,3_41_0_1,2022-03-01T09:09:43.061Z,,,,0,V,100.00199999997858,timeout,,,,134739.30000001192,134737.823,134637.821,134640.19999998808,134654.488,134754.49,,white
,Reaction,canvas.Screen,3_41_0_2,2022-03-01T09:09:43.401Z,,,,0,V,319.81000001193024,response,,stim_detected,keydown(Space),135079.19999998808,135074.30000001192,134737.823,134739.5,134754.49,135087.83,,white
,Trial,flow.Sequence,3_41_0,2022-03-01T09:09:43.402Z,,,,0,V,2469.8530000119354,completion,,,,135079.5,135074.30000001192,132587.78,132601.69999998808,132604.447,135087.83,,white
,Frame,canvas.Frame,3_41,2022-03-01T09:09:43.402Z,,,,0,V,2475.1530000238563,,,,,135079.69999998808,135079.60000002384,132587.78,132600.80000001192,132604.447,135087.83,,white
,Fixation,canvas.Screen,3_42_0_0,2022-03-01T09:09:45.045Z,,,,0,V,1650.033000000025,timeout,,,,136723.39999997616,136721.196,135071.163,135080.80000001192,135087.83,136737.863,,white
,Stimulus,canvas.Screen,3_42_0_1,2022-03-01T09:09:45.146Z,,,,0,V,100.00199999997858,timeout,,,,136823.89999997616,136821.198,136721.196,136723.69999998808,136737.863,136837.865,,white
,Reaction,canvas.Screen,3_42_0_2,2022-03-01T09:09:45.372Z,,,,0,V,207.53499997616746,response,,stim_detected,keydown(Space),137049.89999997616,137045.39999997616,136821.198,136824.89999997616,136837.865,137054.536,,white
,Trial,flow.Sequence,3_42_0,2022-03-01T09:09:45.372Z,,,,0,V,1957.569999976171,completion,,,,137050.10000002384,137045.39999997616,135071.163,135080.69999998808,135087.83,137054.536,,white
,Frame,canvas.Frame,3_42,2022-03-01T09:09:45.373Z,,,,0,V,1962.4700000119337,,,,,137050.39999997616,137050.30000001192,135071.163,135079.80000001192,135087.83,137054.536,,white
,Fixation,canvas.Screen,3_43_0_0,2022-03-01T09:09:47.145Z,,,,1,VA,1783.369000000006,timeout,,,,138823.30000001192,138821.238,137037.869,137051.69999998808,137054.536,138837.905,,white
,Stimulus,canvas.Screen,3_43_0_1,2022-03-01T09:09:47.246Z,,,,1,VA,100.00200000000768,timeout,,,,138923.39999997616,138921.24,138821.238,138824.60000002384,138837.905,138937.907,,white
,Reaction,canvas.Screen,3_43_0_2,2022-03-01T09:09:47.452Z,,,,1,VA,186.19300002383534,response,,stim_detected,keydown(Space),139129.5,139124.10000002384,138921.24,138923.60000002384,138937.907,139137.911,,white
,Trial,flow.Sequence,3_43_0,2022-03-01T09:09:47.452Z,,,,1,VA,2069.564000023849,completion,,,,139129.89999997616,139124.10000002384,137037.869,137051.60000002384,137054.536,139137.911,,white
,Frame,canvas.Frame,3_43,2022-03-01T09:09:47.452Z,,,,1,VA,2075.464000000007,,,,,139130.10000002384,139130,137037.869,137050.5,137054.536,139137.911,,white
,Fixation,canvas.Screen,3_44_0_0,2022-03-01T09:09:49.262Z,,,,0,V,1816.7030000000086,timeout,,,,140940.30000001192,140937.947,139121.244,139131.19999998808,139137.911,140954.614,,white
,Stimulus,canvas.Screen,3_44_0_1,2022-03-01T09:09:49.362Z,,,,0,V,100.00200000000768,timeout,,,,141039.5,141037.949,140937.947,140940.5,140954.614,141054.616,,white
,Reaction,canvas.Screen,3_44_0_2,2022-03-01T09:09:50.863Z,,,,0,V,1500.0299999999988,timeout,,,,142540.5,142537.979,141037.949,141039.69999998808,141054.616,142554.646,,white
,Trial,flow.Sequence,3_44_0,2022-03-01T09:09:50.863Z,,,,0,V,3400.0679999999993,completion,,,,142540.69999998808,142537.979,139121.244,139131.19999998808,139137.911,142554.646,,white
,Frame,canvas.Frame,3_44,2022-03-01T09:09:50.863Z,,,,0,V,3402.889000011928,,,,,142540.89999997616,142540.80000001192,139121.244,139130.30000001192,139137.911,142571.313,,white
,Fixation,canvas.Screen,3_45_0_0,2022-03-01T09:09:53.313Z,,,,0,V,2433.3820000000123,timeout,,,,144990.39999997616,144988.028,142554.646,142541.80000001192,142571.313,145004.695,,white
,Stimulus,canvas.Screen,3_45_0_1,2022-03-01T09:09:53.412Z,,,,0,V,100.00199999997858,timeout,,,,145089.39999997616,145088.03,144988.028,144990.5,145004.695,145104.697,,white
,Reaction,canvas.Screen,3_45_0_2,2022-03-01T09:09:53.630Z,,,,0,V,198.30300000001444,response,,stim_detected,keydown(Space),145307.69999998808,145303,145088.03,145089.60000002384,145104.697,145321.368,,white
,Trial,flow.Sequence,3_45_0,2022-03-01T09:09:53.630Z,,,,0,V,2731.6870000000054,completion,,,,145308.10000002384,145303,142554.646,142541.69999998808,142571.313,145321.368,,white
,Frame,canvas.Frame,3_45,2022-03-01T09:09:53.631Z,,,,0,V,2736.8869999880844,,,,,145308.30000001192,145308.19999998808,142554.646,142541.10000002384,142571.313,145321.368,,white
,Fixation,canvas.Screen,3_46_0_0,2022-03-01T09:09:55.695Z,,,,1,VA,2066.7080000000133,timeout,,,,147372.80000001192,147371.409,145304.701,145309.39999997616,145321.368,147388.076,,white
,Stimulus,canvas.Screen,3_46_0_1,2022-03-01T09:09:55.796Z,,,,1,VA,100.00200000000768,timeout,,,,147474,147471.411,147371.409,147373.10000002384,147388.076,147488.078,,white
,Reaction,canvas.Screen,3_46_0_2,2022-03-01T09:09:56.000Z,,,,1,VA,185.62199998807046,response,,stim_detected,keydown(Space),147678.10000002384,147673.69999998808,147471.411,147474.19999998808,147488.078,147688.082,,white
,Trial,flow.Sequence,3_46_0,2022-03-01T09:09:56.001Z,,,,1,VA,2352.3319999880914,completion,,,,147678.5,147673.69999998808,145304.701,145309.30000001192,145321.368,147688.082,,white
,Frame,canvas.Frame,3_46,2022-03-01T09:09:56.001Z,,,,1,VA,2357.232000023854,,,,,147678.69999998808,147678.60000002384,145304.701,145308.39999997616,145321.368,147688.082,,white
,Fixation,canvas.Screen,3_47_0_0,2022-03-01T09:09:57.746Z,,,,1,VA,1750.0350000000035,timeout,,,,149423.39999997616,149421.45,147671.415,147679.80000001192,147688.082,149438.117,,white
,Stimulus,canvas.Screen,3_47_0_1,2022-03-01T09:09:57.846Z,,,,1,VA,100.00200000000768,timeout,,,,149523.60000002384,149521.452,149421.45,149423.69999998808,149438.117,149538.119,,white
,Reaction,canvas.Screen,3_47_0_2,2022-03-01T09:09:58.019Z,,,,1,VA,154.38099999999395,response,,stim_detected,keydown(Space),149696.89999997616,149692.5,149521.452,149523.80000001192,149538.119,149704.789,,white
,Trial,flow.Sequence,3_47_0,2022-03-01T09:09:58.019Z,,,,1,VA,2004.4180000000051,completion,,,,149697.10000002384,149692.5,147671.415,147679.69999998808,147688.082,149704.789,,white
,Frame,canvas.Frame,3_47,2022-03-01T09:09:58.020Z,,,,1,VA,2009.218000011926,,,,,149697.30000001192,149697.30000001192,147671.415,147678.80000001192,147688.082,149704.789,,white
,Fixation,canvas.Screen,3_48_0_0,2022-03-01T09:10:00.496Z,,,,0,V,2483.3830000000016,timeout,,,,152173.89999997616,152171.505,149688.122,149698.39999997616,149704.789,152188.172,,white
,Stimulus,canvas.Screen,3_48_0_1,2022-03-01T09:10:00.595Z,,,,0,V,100.00200000000768,timeout,,,,152272.5,152271.507,152171.505,152174.10000002384,152188.172,152288.174,,white
,Reaction,canvas.Screen,3_48_0_2,2022-03-01T09:10:00.817Z,,,,0,V,202.22599997615907,response,,stim_detected,keydown(Space),152494.89999997616,152490.39999997616,152271.507,152272.69999998808,152288.174,152504.845,,white
,Trial,flow.Sequence,3_48_0,2022-03-01T09:10:00.817Z,,,,0,V,2785.6109999761684,completion,,,,152495.10000002384,152490.39999997616,149688.122,149698.30000001192,149704.789,152504.845,,white
,Frame,canvas.Frame,3_48,2022-03-01T09:10:00.818Z,,,,0,V,2790.511000011931,,,,,152495.39999997616,152495.30000001192,149688.122,149697.5,149704.789,152504.845,,white
,Fixation,canvas.Screen,3_49_0_0,2022-03-01T09:10:02.363Z,,,,0,V,1550.0309999999881,timeout,,,,154040.19999998808,154038.209,152488.178,152496.39999997616,152504.845,154054.876,,white
,Stimulus,canvas.Screen,3_49_0_1,2022-03-01T09:10:02.462Z,,,,0,V,100.00200000000768,timeout,,,,154139.30000001192,154138.211,154038.209,154040.39999997616,154054.876,154154.878,,white
,Reaction,canvas.Screen,3_49_0_2,2022-03-01T09:10:02.656Z,,,,0,V,174.62200000000303,response,,stim_detected,keydown(Space),154334.19999998808,154329.5,154138.211,154139.5,154154.878,154338.215,,white
,Trial,flow.Sequence,3_49_0,2022-03-01T09:10:02.657Z,,,,0,V,1824.6549999999988,completion,,,,154334.5,154329.5,152488.178,152496.30000001192,152504.845,154338.215,,white
,Frame,canvas.Frame,3_49,2022-03-01T09:10:02.657Z,,,,0,V,1829.7550000238407,,,,,154334.80000001192,154334.60000002384,152488.178,152495.5,152504.845,154338.215,,white
,Fixation,canvas.Screen,3_50_0_0,2022-03-01T09:10:04.180Z,,,,1,VA,1533.3640000000014,timeout,,,,155857.19999998808,155854.912,154321.548,154335.89999997616,154338.215,155871.579,,white
,Stimulus,canvas.Screen,3_50_0_1,2022-03-01T09:10:04.279Z,,,,1,VA,100.00200000000768,timeout,,,,155956.30000001192,155954.914,155854.912,155857.39999997616,155871.579,155971.581,,white
,Reaction,canvas.Screen,3_50_0_2,2022-03-01T09:10:04.467Z,,,,1,VA,167.71900001191534,response,,stim_detected,keydown(Space),156144.30000001192,156139.30000001192,155954.914,155956.5,155971.581,156154.918,,white
,Trial,flow.Sequence,3_50_0,2022-03-01T09:10:04.467Z,,,,1,VA,1801.0850000119244,completion,,,,156144.5,156139.30000001192,154321.548,154335.89999997616,154338.215,156154.918,,white
,Frame,canvas.Frame,3_50,2022-03-01T09:10:04.467Z,,,,1,VA,1806.4849999880826,,,,,156144.80000001192,156144.69999998808,154321.548,154334.89999997616,154338.215,156154.918,,white
,Fixation,canvas.Screen,3_51_0_0,2022-03-01T09:10:05.962Z,,,,1,VA,1500.0299999999988,timeout,,,,157639.89999997616,157638.281,156138.251,156145.80000001192,156154.918,157654.948,,white
,Stimulus,canvas.Screen,3_51_0_1,2022-03-01T09:10:06.062Z,,,,1,VA,100.00200000000768,timeout,,,,157740.10000002384,157738.283,157638.281,157640.10000002384,157654.948,157754.95,,white
,Reaction,canvas.Screen,3_51_0_2,2022-03-01T09:10:06.250Z,,,,1,VA,168.24999998806743,response,,stim_detected,keydown(Space),157927.60000002384,157923.19999998808,157738.283,157740.30000001192,157754.95,157938.287,,white
,Trial,flow.Sequence,3_51_0,2022-03-01T09:10:06.250Z,,,,1,VA,1768.281999988074,completion,,,,157927.89999997616,157923.19999998808,156138.251,156145.80000001192,156154.918,157938.287,,white
,Frame,canvas.Frame,3_51,2022-03-01T09:10:06.250Z,,,,1,VA,1773.0819999999949,,,,,157928.10000002384,157928,156138.251,156144.89999997616,156154.918,157938.287,,white
,Fixation,canvas.Screen,3_52_0_0,2022-03-01T09:10:08.330Z,,,,1,VA,2083.375,timeout,,,,160007.10000002384,160004.995,157921.62,157929.39999997616,157938.287,160021.662,,white
,Stimulus,canvas.Screen,3_52_0_1,2022-03-01T09:10:08.429Z,,,,1,VA,100.00199999997858,timeout,,,,160106.89999997616,160104.997,160004.995,160007.39999997616,160021.662,160121.664,,white
,Reaction,canvas.Screen,3_52_0_2,2022-03-01T09:10:08.626Z,,,,1,VA,177.4360000238521,response,,stim_detected,keydown(Space),160303.89999997616,160299.10000002384,160104.997,160107.10000002384,160121.664,160305.001,,white
,Trial,flow.Sequence,3_52_0,2022-03-01T09:10:08.627Z,,,,1,VA,2360.8130000238307,completion,,,,160304.10000002384,160299.10000002384,157921.62,157929.19999998808,157938.287,160305.001,,white
,Frame,canvas.Frame,3_52,2022-03-01T09:10:08.627Z,,,,1,VA,2365.912999988068,,,,,160304.39999997616,160304.19999998808,157921.62,157928.30000001192,157938.287,160305.001,,white
,Fixation,canvas.Screen,3_53_0_0,2022-03-01T09:10:10.730Z,,,,1,VA,2116.7090000000026,timeout,,,,162407.39999997616,162405.043,160288.334,160305.89999997616,160305.001,162421.71,,white
,Stimulus,canvas.Screen,3_53_0_1,2022-03-01T09:10:10.829Z,,,,1,VA,100.00200000000768,timeout,,,,162506.89999997616,162505.045,162405.043,162407.60000002384,162421.71,162521.712,,white
,Reaction,canvas.Screen,3_53_0_2,2022-03-01T09:10:11.064Z,,,,1,VA,214.0880000119214,response,,stim_detected,keydown(Space),162741.69999998808,162735.80000001192,162505.045,162507.30000001192,162521.712,162755.05,,white
,Trial,flow.Sequence,3_53_0,2022-03-01T09:10:11.064Z,,,,1,VA,2430.7990000119316,completion,,,,162742,162735.80000001192,160288.334,160305.39999997616,160305.001,162755.05,,white
,Frame,canvas.Frame,3_53,2022-03-01T09:10:11.065Z,,,,1,VA,2437.0990000238526,,,,,162742.10000002384,162742.10000002384,160288.334,160304.5,160305.001,162755.05,,white
,Fixation,canvas.Screen,3_54_0_0,2022-03-01T09:10:13.346Z,,,,0,V,2283.3790000000154,timeout,,,,165023.5,165021.762,162738.383,162743,162755.05,165038.429,,white
,Stimulus,canvas.Screen,3_54_0_1,2022-03-01T09:10:13.446Z,,,,0,V,100.00200000000768,timeout,,,,165124,165121.764,165021.762,165023.60000002384,165038.429,165138.431,,white
,Reaction,canvas.Screen,3_54_0_2,2022-03-01T09:10:13.660Z,,,,0,V,196.16900002383045,response,,stim_detected,keydown(Space),165337.39999997616,165334.60000002384,165121.764,165124.19999998808,165138.431,165355.102,,white
,Trial,flow.Sequence,3_54_0,2022-03-01T09:10:13.660Z,,,,0,V,2579.5500000238535,completion,,,,165337.60000002384,165334.60000002384,162738.383,162742.89999997616,162755.05,165355.102,,white
,Frame,canvas.Frame,3_54,2022-03-01T09:10:13.660Z,,,,0,V,2582.6499999880907,,,,,165337.69999998808,165337.69999998808,162738.383,162742.30000001192,162755.05,165355.102,,white
,Fixation,canvas.Screen,3_55_0_0,2022-03-01T09:10:15.629Z,,,,0,V,1966.7059999999765,timeout,,,,167306.89999997616,167305.141,165338.435,165338.19999998808,165355.102,167321.808,,white
,Stimulus,canvas.Screen,3_55_0_1,2022-03-01T09:10:15.730Z,,,,0,V,100.00200000000768,timeout,,,,167407.39999997616,167405.143,167305.141,167307.10000002384,167321.808,167421.81,,white
,Reaction,canvas.Screen,3_55_0_2,2022-03-01T09:10:15.914Z,,,,0,V,166.69000000000233,response,,stim_detected,keydown(Space),167591.60000002384,167588.5,167405.143,167407.5,167421.81,167605.147,,white
,Trial,flow.Sequence,3_55_0,2022-03-01T09:10:15.914Z,,,,0,V,2233.3979999999865,completion,,,,167591.89999997616,167588.5,165338.435,165338.19999998808,165355.102,167605.147,,white
,Frame,canvas.Frame,3_55,2022-03-01T09:10:15.914Z,,,,0,V,2236.7979999761446,,,,,167591.89999997616,167591.89999997616,165338.435,165337.69999998808,165355.102,167605.147,,white
,Fixation,canvas.Screen,3_56_0_0,2022-03-01T09:10:17.762Z,,,,1,A,1850.0370000000112,timeout,,,,169440.10000002384,169438.517,167588.48,167592.60000002384,167605.147,169455.184,,grey
,Stimulus,canvas.Screen,3_56_0_1,2022-03-01T09:10:17.862Z,,,,1,A,100.00199999997858,timeout,,,,169539.10000002384,169538.519,169438.517,169440.19999998808,169455.184,169555.186,,grey
,Reaction,canvas.Screen,3_56_0_2,2022-03-01T09:10:18.181Z,,,,1,A,298.31400000001304,response,,stim_detected,keydown(Space),169858.80000001192,169853.5,169538.519,169539.19999998808,169555.186,169871.859,,grey
,Trial,flow.Sequence,3_56_0,2022-03-01T09:10:18.182Z,,,,1,A,2248.353000000003,completion,,,,169859.39999997616,169853.5,167588.48,167592.60000002384,167605.147,169871.859,,grey
,Frame,canvas.Frame,3_56,2022-03-01T09:10:18.182Z,,,,1,A,2254.353000000003,,,,,169859.60000002384,169859.5,167588.48,167592,167605.147,169871.859,,grey
,Fixation,canvas.Screen,3_57_0_0,2022-03-01T09:10:20.196Z,,,,1,VA,2016.7069999999949,timeout,,,,171873.60000002384,171871.899,169855.192,169860.80000001192,169871.859,171888.566,,white
,Stimulus,canvas.Screen,3_57_0_1,2022-03-01T09:10:20.297Z,,,,1,VA,100.00200000000768,timeout,,,,171974.5,171971.901,171871.899,171873.89999997616,171888.566,171988.568,,white
,Reaction,canvas.Screen,3_57_0_2,2022-03-01T09:10:20.484Z,,,,1,VA,168.9320000000007,response,,stim_detected,keydown(Space),172161.89999997616,172157.5,171971.901,171974.69999998808,171988.568,172171.905,,white
,Trial,flow.Sequence,3_57_0,2022-03-01T09:10:20.485Z,,,,1,VA,2285.6410000000033,completion,,,,172162.19999998808,172157.5,169855.192,169860.69999998808,169871.859,172171.905,,white
,Frame,canvas.Frame,3_57,2022-03-01T09:10:20.485Z,,,,1,VA,2290.441000011924,,,,,172162.39999997616,172162.30000001192,169855.192,169859.80000001192,169871.859,172171.905,,white
,Fixation,canvas.Screen,3_58_0_0,2022-03-01T09:10:22.496Z,,,,0,V,2016.7069999999949,timeout,,,,174173.89999997616,174171.945,172155.238,172163.39999997616,172171.905,174188.612,,white
,Stimulus,canvas.Screen,3_58_0_1,2022-03-01T09:10:22.614Z,,,,0,V,100.00200000000768,timeout,,,,174291.30000001192,174271.947,174171.945,174174.10000002384,174188.612,174288.614,,white
,Reaction,canvas.Screen,3_58_0_2,2022-03-01T09:10:22.802Z,,,,0,V,186.68600001191953,response,,stim_detected,keydown(Space),174479.89999997616,174475.30000001192,174271.947,174291.5,174288.614,174488.618,,white
,Trial,flow.Sequence,3_58_0,2022-03-01T09:10:22.803Z,,,,0,V,2303.395000011922,completion,,,,174480.19999998808,174475.30000001192,172155.238,172163.30000001192,172171.905,174488.618,,white
,Frame,canvas.Frame,3_58,2022-03-01T09:10:22.803Z,,,,0,V,2308.395000011922,,,,,174480.5,174480.30000001192,172155.238,172162.5,172171.905,174488.618,,white
,Fixation,canvas.Screen,3_59_0_0,2022-03-01T09:10:24.730Z,,,,0,V,1933.372000000003,timeout,,,,176407.39999997616,176405.323,174471.951,174481.60000002384,174488.618,176421.99,,white
,Stimulus,canvas.Screen,3_59_0_1,2022-03-01T09:10:24.830Z,,,,0,V,100.00200000000768,timeout,,,,176507.60000002384,176505.325,176405.323,176407.5,176421.99,176521.992,,white
,Reaction,canvas.Screen,3_59_0_2,2022-03-01T09:10:24.999Z,,,,0,V,150.2079999880807,response,,stim_detected,keydown(Space),176676.60000002384,176672.19999998808,176505.325,176507.80000001192,176521.992,176688.662,,white
,Trial,flow.Sequence,3_59_0,2022-03-01T09:10:24.999Z,,,,0,V,2183.5819999880914,completion,,,,176676.89999997616,176672.19999998808,174471.951,174481.60000002384,174488.618,176688.662,,white
,Frame,canvas.Frame,3_59,2022-03-01T09:10:25.000Z,,,,0,V,2188.3820000000123,,,,,176677.10000002384,176677,174471.951,174480.5,174488.618,176688.662,,white
,Fixation,canvas.Screen,3_60_0_0,2022-03-01T09:10:26.679Z,,,,1,VA,1683.3669999999984,timeout,,,,178356.30000001192,178355.362,176671.995,176678.19999998808,176688.662,178372.029,,white
,Stimulus,canvas.Screen,3_60_0_1,2022-03-01T09:10:26.781Z,,,,1,VA,100.00199999997858,timeout,,,,178458.39999997616,178455.364,178355.362,178356.5,178372.029,178472.031,,white
,Reaction,canvas.Screen,3_60_0_2,2022-03-01T09:10:26.969Z,,,,1,VA,169.16899998809095,response,,stim_detected,keydown(Space),178646,178641.19999998808,178455.364,178458.69999998808,178472.031,178655.368,,white
,Trial,flow.Sequence,3_60_0,2022-03-01T09:10:26.969Z,,,,1,VA,1952.537999988068,completion,,,,178646.39999997616,178641.19999998808,176671.995,176678.10000002384,176688.662,178655.368,,white
,Frame,canvas.Frame,3_60,2022-03-01T09:10:26.969Z,,,,1,VA,1957.737999976147,,,,,178646.60000002384,178646.39999997616,176671.995,176677.30000001192,176688.662,178655.368,,white
,Fixation,canvas.Screen,3_61_0_0,2022-03-01T09:10:29.446Z,,,,1,VA,2483.3830000000016,timeout,,,,181123.39999997616,181122.084,178638.701,178647.60000002384,178655.368,181138.751,,white
,Stimulus,canvas.Screen,3_61_0_1,2022-03-01T09:10:29.547Z,,,,1,VA,100.00200000000768,timeout,,,,181224.80000001192,181222.086,181122.084,181123.69999998808,181138.751,181238.753,,white
,Reaction,canvas.Screen,3_61_0_2,2022-03-01T09:10:29.883Z,,,,1,VA,317.14699997616117,response,,stim_detected,keydown(Space),181560.5,181555.89999997616,181222.086,181225,181238.753,181572.093,,white
,Trial,flow.Sequence,3_61_0,2022-03-01T09:10:29.883Z,,,,1,VA,2900.5319999761705,completion,,,,181560.89999997616,181555.89999997616,178638.701,178647.5,178655.368,181572.093,,white
,Frame,canvas.Frame,3_61,2022-03-01T09:10:29.884Z,,,,1,VA,2905.5319999761705,,,,,181561.10000002384,181560.89999997616,178638.701,178646.60000002384,178655.368,181572.093,,white
,Fixation,canvas.Screen,3_62_0_0,2022-03-01T09:10:32.297Z,,,,1,VA,2416.7149999999965,timeout,,,,183974.60000002384,183972.141,181555.426,181562.10000002384,181572.093,183988.808,,white
,Stimulus,canvas.Screen,3_62_0_1,2022-03-01T09:10:32.397Z,,,,1,VA,100.00200000000768,timeout,,,,184073.89999997616,184072.143,183972.141,183974.69999998808,183988.808,184088.81,,white
,Reaction,canvas.Screen,3_62_0_2,2022-03-01T09:10:32.559Z,,,,1,VA,143.8899999880814,response,,stim_detected,keydown(Space),184236.30000001192,184232.69999998808,184072.143,184074,184088.81,184238.813,,white
,Trial,flow.Sequence,3_62_0,2022-03-01T09:10:32.559Z,,,,1,VA,2660.6069999880856,completion,,,,184236.39999997616,184232.69999998808,181555.426,181562,181572.093,184238.813,,white
,Frame,canvas.Frame,3_62,2022-03-01T09:10:32.559Z,,,,1,VA,2664.5070000238484,,,,,184236.60000002384,184236.60000002384,181555.426,181561.19999998808,181572.093,184238.813,,white
,Fixation,canvas.Screen,3_63_0_0,2022-03-01T09:10:34.929Z,,,,1,A,2383.380999999994,timeout,,,,186606.69999998808,186605.527,184222.146,184237.39999997616,184238.813,186622.194,,grey
,Stimulus,canvas.Screen,3_63_0_1,2022-03-01T09:10:35.030Z,,,,1,A,100.00200000000768,timeout,,,,186707.69999998808,186705.529,186605.527,186606.89999997616,186622.194,186722.196,,grey
,Reaction,canvas.Screen,3_63_0_2,2022-03-01T09:10:35.240Z,,,,1,A,190.5039999880828,response,,stim_detected,keydown(Space),186917.19999998808,186912.69999998808,186705.529,186707.80000001192,186722.196,186922.2,,grey
,Trial,flow.Sequence,3_63_0,2022-03-01T09:10:35.240Z,,,,1,A,2673.8869999880844,completion,,,,186917.39999997616,186912.69999998808,184222.146,184237.30000001192,184238.813,186922.2,,grey
,Frame,canvas.Frame,3_63,2022-03-01T09:10:35.240Z,,,,1,A,2678.787000023847,,,,,186917.69999998808,186917.60000002384,184222.146,184236.60000002384,184238.813,186922.2,,grey
,Fixation,canvas.Screen,3_64_0_0,2022-03-01T09:10:37.396Z,,,,1,A,2183.3769999999786,timeout,,,,189073.89999997616,189072.243,186905.533,186918.69999998808,186922.2,189105.577,,grey
,Stimulus,canvas.Screen,3_64_0_1,2022-03-01T09:10:37.515Z,,,,1,A,100.00200000000768,timeout,,,,189191.89999997616,189188.912,189072.243,189074,189105.577,189205.579,,grey
,Reaction,canvas.Screen,3_64_0_2,2022-03-01T09:10:37.759Z,,,,1,A,225.9210000000021,response,,stim_detected,keydown(Space),189436.39999997616,189431.5,189188.912,189192.19999998808,189205.579,189438.917,,grey
,Trial,flow.Sequence,3_64_0,2022-03-01T09:10:37.759Z,,,,1,A,2509.2999999999884,completion,,,,189436.60000002384,189431.5,186905.533,186918.60000002384,186922.2,189438.917,,grey
,Frame,canvas.Frame,3_64,2022-03-01T09:10:37.760Z,,,,1,A,2514.4999999880674,,,,,189436.89999997616,189436.69999998808,186905.533,186917.80000001192,186922.2,189438.917,,grey
,Fixation,canvas.Screen,3_65_0_0,2022-03-01T09:10:39.648Z,,,,1,VA,1900.0380000000005,timeout,,,,191325,191322.288,189422.25,189438,189438.917,191338.955,,white
,Stimulus,canvas.Screen,3_65_0_1,2022-03-01T09:10:39.747Z,,,,1,VA,100.00200000000768,timeout,,,,191424.19999998808,191422.29,191322.288,191325.19999998808,191338.955,191438.957,,white
,Reaction,canvas.Screen,3_65_0_2,2022-03-01T09:10:39.933Z,,,,1,VA,167.44299997616326,response,,stim_detected,keydown(Space),191610.80000001192,191606.39999997616,191422.29,191424.39999997616,191438.957,191622.294,,white
,Trial,flow.Sequence,3_65_0,2022-03-01T09:10:39.934Z,,,,1,VA,2167.4829999761714,completion,,,,191611.10000002384,191606.39999997616,189422.25,189438,189438.917,191622.294,,white
,Frame,canvas.Frame,3_65,2022-03-01T09:10:39.934Z,,,,1,VA,2172.2829999880923,,,,,191611.30000001192,191611.19999998808,189422.25,189437,189438.917,191622.294,,white
,Fixation,canvas.Screen,3_66_0_0,2022-03-01T09:10:42.364Z,,,,1,A,2433.3820000000123,timeout,,,,194041,194039.009,191605.627,191612.30000001192,191622.294,194055.676,,grey
,Stimulus,canvas.Screen,3_66_0_1,2022-03-01T09:10:42.464Z,,,,1,A,100.00200000000768,timeout,,,,194141.19999998808,194139.011,194039.009,194042,194055.676,194155.678,,grey
,Reaction,canvas.Screen,3_66_0_2,2022-03-01T09:10:42.725Z,,,,1,A,241.52199998806464,response,,stim_detected,keydown(Space),194402,194397.19999998808,194139.011,194141.39999997616,194155.678,194405.683,,grey
,Trial,flow.Sequence,3_66_0,2022-03-01T09:10:42.725Z,,,,1,A,2774.9059999880847,completion,,,,194402.30000001192,194397.19999998808,191605.627,191612.19999998808,191622.294,194405.683,,grey
,Frame,canvas.Frame,3_66,2022-03-01T09:10:42.725Z,,,,1,A,2780.1059999761637,,,,,194402.5,194402.39999997616,191605.627,191611.39999997616,191622.294,194405.683,,grey
,Fixation,canvas.Screen,3_67_0_0,2022-03-01T09:10:44.714Z,,,,1,A,2000.0400000000081,timeout,,,,196391.60000002384,196389.056,194389.016,194403.60000002384,194405.683,196405.723,,grey
,Stimulus,canvas.Screen,3_67_0_1,2022-03-01T09:10:44.814Z,,,,1,A,100.00200000000768,timeout,,,,196491.39999997616,196489.058,196389.056,196391.80000001192,196405.723,196505.725,,grey
,Reaction,canvas.Screen,3_67_0_2,2022-03-01T09:10:45.023Z,,,,1,A,190.37500002383604,response,,stim_detected,keydown(Space),196700.5,196696.10000002384,196489.058,196491.69999998808,196505.725,196705.729,,grey
,Trial,flow.Sequence,3_67_0,2022-03-01T09:10:45.024Z,,,,1,A,2290.417000023852,completion,,,,196700.89999997616,196696.10000002384,194389.016,194403.5,194405.683,196705.729,,grey
,Frame,canvas.Frame,3_67,2022-03-01T09:10:45.024Z,,,,1,A,2295.216999976168,,,,,196701.10000002384,196700.89999997616,194389.016,194402.69999998808,194405.683,196705.729,,grey
,Fixation,canvas.Screen,3_68_0_0,2022-03-01T09:10:47.414Z,,,,0,V,2400.04800000001,timeout,,,,199091.10000002384,199089.11,196689.062,196702.10000002384,196705.729,199105.777,,white
,Stimulus,canvas.Screen,3_68_0_1,2022-03-01T09:10:47.513Z,,,,0,V,100.00200000000768,timeout,,,,199190.10000002384,199189.112,199089.11,199091.30000001192,199105.777,199205.779,,white
,Reaction,canvas.Screen,3_68_0_2,2022-03-01T09:10:47.774Z,,,,0,V,242.1209999761486,response,,stim_detected,keydown(Space),199451.39999997616,199447.89999997616,199189.112,199190.30000001192,199205.779,199455.784,,white
,Trial,flow.Sequence,3_68_0,2022-03-01T09:10:47.774Z,,,,0,V,2742.170999976166,completion,,,,199451.60000002384,199447.89999997616,196689.062,196702.10000002384,196705.729,199455.784,,white
,Frame,canvas.Frame,3_68,2022-03-01T09:10:47.774Z,,,,0,V,2745.87100002385,,,,,199451.69999998808,199451.60000002384,196689.062,196701.10000002384,196705.729,199455.784,,white
,Fixation,canvas.Screen,3_69_0_0,2022-03-01T09:10:49.998Z,,,,1,A,2233.377999999997,timeout,,,,201674.80000001192,201672.495,199439.117,199452.30000001192,199455.784,201689.162,,grey
,Stimulus,canvas.Screen,3_69_0_1,2022-03-01T09:10:50.096Z,,,,1,A,100.00199999997858,timeout,,,,201773.60000002384,201772.497,201672.495,201675,201689.162,201789.164,,grey
,Reaction,canvas.Screen,3_69_0_2,2022-03-01T09:10:50.329Z,,,,1,A,212.7359999761684,response,,stim_detected,keydown(Space),202006.5,202001.89999997616,201772.497,201773.80000001192,201789.164,202022.502,,grey
,Trial,flow.Sequence,3_69_0,2022-03-01T09:10:50.330Z,,,,1,A,2546.115999976144,completion,,,,202006.69999998808,202001.89999997616,199439.117,199452.19999998808,199455.784,202022.502,,grey
,Frame,canvas.Frame,3_69,2022-03-01T09:10:50.330Z,,,,1,A,2551.0160000119067,,,,,202006.89999997616,202006.80000001192,199439.117,199451.69999998808,199455.784,202022.502,,grey
,Fixation,canvas.Screen,3_70_0_0,2022-03-01T09:10:52.747Z,,,,1,A,2416.7149999999965,timeout,,,,204424.30000001192,204422.55,202005.835,202007.89999997616,202022.502,204439.217,,grey
,Stimulus,canvas.Screen,3_70_0_1,2022-03-01T09:10:52.847Z,,,,1,A,100.00200000000768,timeout,,,,204523.69999998808,204522.552,204422.55,204424.5,204439.217,204539.219,,grey
,Reaction,canvas.Screen,3_70_0_2,2022-03-01T09:10:54.347Z,,,,1,A,1500.0299999999988,timeout,,,,206024.30000001192,206022.582,204522.552,204524.10000002384,204539.219,206039.249,,grey
,Trial,flow.Sequence,3_70_0,2022-03-01T09:10:54.347Z,,,,1,A,4000.079999999987,completion,,,,206024.60000002384,206022.582,202005.835,202007.89999997616,202022.502,206039.249,,grey
,Frame,canvas.Frame,3_70,2022-03-01T09:10:54.348Z,,,,1,A,4002.098000023834,,,,,206024.80000001192,206024.60000002384,202005.835,202007.10000002384,202022.502,206055.916,,grey
,Fixation,canvas.Screen,3_71_0_0,2022-03-01T09:10:55.882Z,,,,0,V,1516.6970000000147,timeout,,,,207558.89999997616,207555.946,206039.249,206026,206055.916,207572.613,,white
,Stimulus,canvas.Screen,3_71_0_1,2022-03-01T09:10:55.980Z,,,,0,V,100.00199999997858,timeout,,,,207657.60000002384,207655.948,207555.946,207559,207572.613,207672.615,,white
,Reaction,canvas.Screen,3_71_0_2,2022-03-01T09:10:56.635Z,,,,0,V,635.1850000119302,response,,stim_detected,keydown(Space),208312.30000001192,208307.80000001192,207655.948,207657.80000001192,207672.615,208322.628,,white
,Trial,flow.Sequence,3_71_0,2022-03-01T09:10:56.635Z,,,,0,V,2251.8840000119235,completion,,,,208312.60000002384,208307.80000001192,206039.249,206025.80000001192,206055.916,208322.628,,white
,Frame,canvas.Frame,3_71,2022-03-01T09:10:56.636Z,,,,0,V,2256.6840000238444,,,,,208312.80000001192,208312.60000002384,206039.249,206024.89999997616,206055.916,208322.628,,white
,Fixation,canvas.Screen,3_72_0_0,2022-03-01T09:10:58.331Z,,,,1,VA,1700.0340000000142,timeout,,,,210008.10000002384,210005.995,208305.961,208313.80000001192,208322.628,210022.662,,white
,Stimulus,canvas.Screen,3_72_0_1,2022-03-01T09:10:58.430Z,,,,1,VA,100.00199999997858,timeout,,,,210107.60000002384,210105.997,210005.995,210008.30000001192,210022.662,210122.664,,white
,Reaction,canvas.Screen,3_72_0_2,2022-03-01T09:10:58.655Z,,,,1,VA,205.03599998808932,response,,stim_detected,keydown(Space),210332.5,210327.69999998808,210105.997,210107.80000001192,210122.664,210339.335,,white
,Trial,flow.Sequence,3_72_0,2022-03-01T09:10:58.656Z,,,,1,VA,2005.071999988082,completion,,,,210333,210327.69999998808,208305.961,208313.69999998808,208322.628,210339.335,,white
,Frame,canvas.Frame,3_72,2022-03-01T09:10:58.656Z,,,,1,VA,2010.4720000238449,,,,,210333.19999998808,210333.10000002384,208305.961,208312.89999997616,208322.628,210339.335,,white
,Fixation,canvas.Screen,3_73_0_0,2022-03-01T09:11:00.848Z,,,,1,A,2200.0439999999944,timeout,,,,212525.10000002384,212522.712,210322.668,210334.30000001192,210339.335,212539.379,,grey
,Stimulus,canvas.Screen,3_73_0_1,2022-03-01T09:11:00.948Z,,,,1,A,100.00200000000768,timeout,,,,212624.69999998808,212622.714,212522.712,212525.30000001192,212539.379,212639.381,,grey
,Reaction,canvas.Screen,3_73_0_2,2022-03-01T09:11:01.170Z,,,,1,A,203.11900000000605,response,,stim_detected,keydown(Space),212846.89999997616,212842.5,212622.714,212624.89999997616,212639.381,212856.052,,grey
,Trial,flow.Sequence,3_73_0,2022-03-01T09:11:01.170Z,,,,1,A,2503.165000000008,completion,,,,212847.19999998808,212842.5,210322.668,210334.19999998808,210339.335,212856.052,,grey
,Frame,canvas.Frame,3_73,2022-03-01T09:11:01.170Z,,,,1,A,2507.965000011929,,,,,212847.5,212847.30000001192,210322.668,210333.39999997616,210339.335,212856.052,,grey
,Fixation,canvas.Screen,3_74_0_0,2022-03-01T09:11:02.981Z,,,,0,V,1816.7030000000086,timeout,,,,214658.19999998808,214656.088,212839.385,212848.39999997616,212856.052,214672.755,,white
,Stimulus,canvas.Screen,3_74_0_1,2022-03-01T09:11:03.080Z,,,,0,V,100.00200000000768,timeout,,,,214757.5,214756.09,214656.088,214658.39999997616,214672.755,214772.757,,white
,Reaction,canvas.Screen,3_74_0_2,2022-03-01T09:11:03.318Z,,,,0,V,217.74299999998766,response,,stim_detected,keydown(Space),214995,214990.5,214756.09,214757.80000001192,214772.757,215006.095,,white
,Trial,flow.Sequence,3_74_0,2022-03-01T09:11:03.318Z,,,,0,V,2134.448000000004,completion,,,,214995.39999997616,214990.5,212839.385,212848.39999997616,212856.052,215006.095,,white
,Frame,canvas.Frame,3_74,2022-03-01T09:11:03.318Z,,,,0,V,2139.347999976162,,,,,214995.60000002384,214995.39999997616,212839.385,212847.60000002384,212856.052,215006.095,,white
,Fixation,canvas.Screen,3_75_0_0,2022-03-01T09:11:05.365Z,,,,1,A,2050.0409999999974,timeout,,,,217041.69999998808,217039.469,214989.428,214996.60000002384,215006.095,217056.136,,grey
,Stimulus,canvas.Screen,3_75_0_1,2022-03-01T09:11:05.463Z,,,,1,A,100.00200000000768,timeout,,,,217140.5,217139.471,217039.469,217041.89999997616,217056.136,217156.138,,grey
,Reaction,canvas.Screen,3_75_0_2,2022-03-01T09:11:05.723Z,,,,1,A,239.3619999999937,response,,stim_detected,keydown(Space),217399.80000001192,217395.5,217139.471,217140.69999998808,217156.138,217406.143,,grey
,Trial,flow.Sequence,3_75_0,2022-03-01T09:11:05.723Z,,,,1,A,2389.404999999999,completion,,,,217400.10000002384,217395.5,214989.428,214996.5,215006.095,217406.143,,grey
,Frame,canvas.Frame,3_75,2022-03-01T09:11:05.723Z,,,,1,A,2394.104999988078,,,,,217400.30000001192,217400.19999998808,214989.428,214995.69999998808,215006.095,217406.143,,grey
,Fixation,canvas.Screen,3_76_0_0,2022-03-01T09:11:07.715Z,,,,1,VA,2000.039999999979,timeout,,,,219392.19999998808,219389.516,217389.476,217402.10000002384,217406.143,219406.183,,white
,Stimulus,canvas.Screen,3_76_0_1,2022-03-01T09:11:07.815Z,,,,1,VA,100.00200000000768,timeout,,,,219491.69999998808,219489.518,219389.516,219392.39999997616,219406.183,219506.185,,white
,Reaction,canvas.Screen,3_76_0_2,2022-03-01T09:11:09.315Z,,,,1,VA,1500.0299999999988,timeout,,,,220991.89999997616,220989.548,219489.518,219491.89999997616,219506.185,221006.215,,white
,Trial,flow.Sequence,3_76_0,2022-03-01T09:11:09.315Z,,,,1,VA,3583.404999999999,completion,,,,220992.19999998808,220989.548,217389.476,217402.10000002384,217406.143,221006.215,,white
,Frame,canvas.Frame,3_76,2022-03-01T09:11:09.315Z,,,,1,VA,3586.15700001191,,,,,220992.39999997616,220992.30000001192,217389.476,217400.39999997616,217406.143,221022.882,,white
,Fixation,canvas.Screen,3_77_0_0,2022-03-01T09:11:11.698Z,,,,1,VA,2366.713999999978,timeout,,,,223375,223372.929,221006.215,220993.39999997616,221022.882,223389.596,,white
,Stimulus,canvas.Screen,3_77_0_1,2022-03-01T09:11:11.798Z,,,,1,VA,100.00200000000768,timeout,,,,223474.89999997616,223472.931,223372.929,223375.30000001192,223389.596,223489.598,,white
,Reaction,canvas.Screen,3_77_0_2,2022-03-01T09:11:12.001Z,,,,1,VA,183.90200000000186,response,,stim_detected,keydown(Space),223678.19999998808,223673.5,223472.931,223475.10000002384,223489.598,223689.602,,white
,Trial,flow.Sequence,3_77_0,2022-03-01T09:11:12.002Z,,,,1,VA,2650.6179999999877,completion,,,,223678.5,223673.5,221006.215,220993.30000001192,221022.882,223689.602,,white
,Frame,canvas.Frame,3_77,2022-03-01T09:11:12.002Z,,,,1,VA,2655.8179999880667,,,,,223678.80000001192,223678.69999998808,221006.215,220992.5,221022.882,223689.602,,white
,Fixation,canvas.Screen,3_78_0_0,2022-03-01T09:11:13.665Z,,,,1,A,1666.6999999999825,timeout,,,,225341.89999997616,225339.635,223672.935,223680,223689.602,225356.302,,grey
,Stimulus,canvas.Screen,3_78_0_1,2022-03-01T09:11:13.764Z,,,,1,A,100.00200000000768,timeout,,,,225441.39999997616,225439.637,225339.635,225342.10000002384,225356.302,225456.304,,grey
,Reaction,canvas.Screen,3_78_0_2,2022-03-01T09:11:14.078Z,,,,1,A,293.6959999999963,response,,stim_detected,keydown(Space),225754.5,225750,225439.637,225441.5,225456.304,225756.31,,grey
,Trial,flow.Sequence,3_78_0,2022-03-01T09:11:14.078Z,,,,1,A,2060.3979999999865,completion,,,,225754.89999997616,225750,223672.935,223679.89999997616,223689.602,225756.31,,grey
,Frame,canvas.Frame,3_78,2022-03-01T09:11:14.078Z,,,,1,A,2065.4980000238284,,,,,225755.19999998808,225755.10000002384,223672.935,223679,223689.602,225756.31,,grey
,Fixation,canvas.Screen,3_79_0_0,2022-03-01T09:11:16.432Z,,,,1,VA,2366.714000000007,timeout,,,,228108.69999998808,228106.357,225739.643,225756.30000001192,225756.31,228123.024,,white
,Stimulus,canvas.Screen,3_79_0_1,2022-03-01T09:11:16.531Z,,,,1,VA,100.00200000000768,timeout,,,,228207.69999998808,228206.359,228106.357,228108.89999997616,228123.024,228223.026,,white
,Reaction,canvas.Screen,3_79_0_2,2022-03-01T09:11:16.716Z,,,,1,VA,164.87399997614557,response,,stim_detected,keydown(Space),228392.60000002384,228387.89999997616,228206.359,228208.10000002384,228223.026,228439.697,,white
,Trial,flow.Sequence,3_79_0,2022-03-01T09:11:16.716Z,,,,1,VA,2631.5899999761605,completion,,,,228393,228387.89999997616,225739.643,225756.19999998808,225756.31,228439.697,,white
,Frame,canvas.Frame,3_79,2022-03-01T09:11:16.717Z,,,,1,VA,2636.790000023844,,,,,228394,228393.10000002384,225739.643,225755.30000001192,225756.31,228439.697,,white
,Fixation,canvas.Screen,3_80_0_0,2022-03-01T09:11:19.150Z,,,,1,VA,2400.04800000001,timeout,,,,230826.89999997616,230823.078,228423.03,228395.10000002384,228439.697,230839.745,,white
,Stimulus,canvas.Screen,3_80_0_1,2022-03-01T09:11:19.249Z,,,,1,VA,100.00200000000768,timeout,,,,230925.80000001192,230923.08,230823.078,230827.60000002384,230839.745,230939.747,,white
,Reaction,canvas.Screen,3_80_0_2,2022-03-01T09:11:19.454Z,,,,1,VA,186.95299998807604,response,,stim_detected,keydown(Space),231131.19999998808,231126.69999998808,230923.08,230925.89999997616,230939.747,231139.751,,white
,Trial,flow.Sequence,3_80_0,2022-03-01T09:11:19.455Z,,,,1,VA,2687.0029999880935,completion,,,,231131.60000002384,231126.69999998808,228423.03,228395,228439.697,231139.751,,white
,Frame,canvas.Frame,3_80,2022-03-01T09:11:19.455Z,,,,1,VA,2691.9030000238563,,,,,231131.69999998808,231131.60000002384,228423.03,228394.10000002384,228439.697,231139.751,,white
,Fixation,canvas.Screen,3_81_0_0,2022-03-01T09:11:21.066Z,,,,1,VA,1616.6990000000224,timeout,,,,232742.60000002384,232739.783,231123.084,231133.10000002384,231139.751,232756.45,,white
,Stimulus,canvas.Screen,3_81_0_1,2022-03-01T09:11:21.165Z,,,,1,VA,100.00199999997858,timeout,,,,232841.80000001192,232839.785,232739.783,232742.69999998808,232756.45,232856.452,,white
,Reaction,canvas.Screen,3_81_0_2,2022-03-01T09:11:21.373Z,,,,1,VA,189.24799998808885,response,,stim_detected,keydown(Space),233050.19999998808,233045.69999998808,232839.785,232842,232856.452,233056.456,,white
,Trial,flow.Sequence,3_81_0,2022-03-01T09:11:21.374Z,,,,1,VA,1905.9489999880898,completion,,,,233050.5,233045.69999998808,231123.084,231132.89999997616,231139.751,233056.456,,white
,Frame,canvas.Frame,3_81,2022-03-01T09:11:21.374Z,,,,1,VA,1910.9489999880898,,,,,233050.80000001192,233050.69999998808,231123.084,231131.89999997616,231139.751,233056.456,,white
,Fixation,canvas.Screen,3_82_0_0,2022-03-01T09:11:22.899Z,,,,0,V,1533.3640000000014,timeout,,,,234575.39999997616,234573.153,233039.789,233051.69999998808,233056.456,234589.82,,white
,Stimulus,canvas.Screen,3_82_0_1,2022-03-01T09:11:22.998Z,,,,0,V,100.00199999997858,timeout,,,,234674.69999998808,234673.155,234573.153,234575.60000002384,234589.82,234689.822,,white
,Reaction,canvas.Screen,3_82_0_2,2022-03-01T09:11:23.241Z,,,,0,V,223.7780000238563,response,,stim_detected,keydown(Space),234918.19999998808,234913.60000002384,234673.155,234675,234689.822,234923.16,,white
,Trial,flow.Sequence,3_82_0,2022-03-01T09:11:23.242Z,,,,0,V,1857.1440000238363,completion,,,,234918.5,234913.60000002384,233039.789,233051.69999998808,233056.456,234923.16,,white
,Frame,canvas.Frame,3_82,2022-03-01T09:11:23.242Z,,,,0,V,1862.1440000238363,,,,,234918.69999998808,234918.60000002384,233039.789,233050.89999997616,233056.456,234923.16,,white
,Fixation,canvas.Screen,3_83_0_0,2022-03-01T09:11:25.331Z,,,,1,A,2100.0419999999867,timeout,,,,237007.69999998808,237006.535,234906.493,234919.69999998808,234923.16,237023.202,,grey
,Stimulus,canvas.Screen,3_83_0_1,2022-03-01T09:11:25.432Z,,,,1,A,100.00200000000768,timeout,,,,237108.80000001192,237106.537,237006.535,237008.10000002384,237023.202,237123.204,,grey
,Reaction,canvas.Screen,3_83_0_2,2022-03-01T09:11:25.699Z,,,,1,A,248.09600001192302,response,,stim_detected,keydown(Space),237375.69999998808,237371.30000001192,237106.537,237109.10000002384,237123.204,237389.876,,grey
,Trial,flow.Sequence,3_83_0,2022-03-01T09:11:25.699Z,,,,1,A,2448.1400000119174,completion,,,,237376.10000002384,237371.30000001192,234906.493,234919.60000002384,234923.16,237389.876,,grey
,Frame,canvas.Frame,3_83,2022-03-01T09:11:25.700Z,,,,1,A,2453.0399999880756,,,,,237376.39999997616,237376.19999998808,234906.493,234918.80000001192,234923.16,237389.876,,grey
,Fixation,canvas.Screen,3_84_0_0,2022-03-01T09:11:27.815Z,,,,1,A,2116.7090000000026,timeout,,,,239492.30000001192,239489.918,237373.209,237377.60000002384,237389.876,239506.585,,grey
,Stimulus,canvas.Screen,3_84_0_1,2022-03-01T09:11:27.915Z,,,,1,A,100.00200000000768,timeout,,,,239592,239589.92,239489.918,239492.39999997616,239506.585,239606.587,,grey
,Reaction,canvas.Screen,3_84_0_2,2022-03-01T09:11:28.127Z,,,,1,A,194.51300002384232,response,,stim_detected,keydown(Space),239804,239801.10000002384,239589.92,239592.19999998808,239606.587,239806.591,,grey
,Trial,flow.Sequence,3_84_0,2022-03-01T09:11:28.127Z,,,,1,A,2411.2240000238526,completion,,,,239804.19999998808,239801.10000002384,237373.209,237377.5,237389.876,239806.591,,grey
,Frame,canvas.Frame,3_84,2022-03-01T09:11:28.127Z,,,,1,A,2414.32399998809,,,,,239804.39999997616,239804.19999998808,237373.209,237376.60000002384,237389.876,239806.591,,grey
,Fixation,canvas.Screen,3_85_0_0,2022-03-01T09:11:30.298Z,,,,1,A,2183.3770000000077,timeout,,,,241974.80000001192,241973.301,239789.924,239805.10000002384,239806.591,241989.968,,grey
,Stimulus,canvas.Screen,3_85_0_1,2022-03-01T09:11:30.399Z,,,,1,A,100.00200000000768,timeout,,,,242076,242073.303,241973.301,241975.10000002384,241989.968,242089.97,,grey
,Reaction,canvas.Screen,3_85_0_2,2022-03-01T09:11:30.637Z,,,,1,A,219.2299999880779,response,,stim_detected,keydown(Space),242313.80000001192,242309.19999998808,242073.303,242076.19999998808,242089.97,242323.308,,grey
,Trial,flow.Sequence,3_85_0,2022-03-01T09:11:30.637Z,,,,1,A,2502.6089999880933,completion,,,,242314.10000002384,242309.19999998808,239789.924,239805.10000002384,239806.591,242323.308,,grey
,Frame,canvas.Frame,3_85,2022-03-01T09:11:30.637Z,,,,1,A,2507.6089999880933,,,,,242314.30000001192,242314.19999998808,239789.924,239804.39999997616,239806.591,242323.308,,grey
,Fixation,canvas.Screen,3_86_0_0,2022-03-01T09:11:32.265Z,,,,0,V,1633.366000000009,timeout,,,,243941.89999997616,243940.007,242306.641,242315.30000001192,242323.308,243956.674,,white
,Stimulus,canvas.Screen,3_86_0_1,2022-03-01T09:11:32.364Z,,,,0,V,100.00200000000768,timeout,,,,244041.30000001192,244040.009,243940.007,243942.10000002384,243956.674,244056.676,,white
,Reaction,canvas.Screen,3_86_0_2,2022-03-01T09:11:32.602Z,,,,0,V,217.4240000238351,response,,stim_detected,keydown(Space),244278.69999998808,244274.10000002384,244040.009,244041.5,244056.676,244290.014,,white
,Trial,flow.Sequence,3_86_0,2022-03-01T09:11:32.602Z,,,,0,V,1950.7920000238519,completion,,,,244279,244274.10000002384,242306.641,242315.30000001192,242323.308,244290.014,,white
,Frame,canvas.Frame,3_86,2022-03-01T09:11:32.602Z,,,,0,V,1955.7920000238519,,,,,244279.19999998808,244279.10000002384,242306.641,242314.39999997616,242323.308,244290.014,,white
,Fixation,canvas.Screen,3_87_0_0,2022-03-01T09:11:34.514Z,,,,1,VA,1916.7050000000163,timeout,,,,246191.19999998808,246190.052,244273.347,244280.30000001192,244290.014,246206.719,,white
,Stimulus,canvas.Screen,3_87_0_1,2022-03-01T09:11:34.616Z,,,,1,VA,100.00199999997858,timeout,,,,246292.69999998808,246290.054,246190.052,246191.39999997616,246206.719,246306.721,,white
,Reaction,canvas.Screen,3_87_0_2,2022-03-01T09:11:34.767Z,,,,1,VA,132.1789999761677,response,,stim_detected,keydown(Space),246443.69999998808,246438.89999997616,246290.054,246293,246306.721,246456.724,,white
,Trial,flow.Sequence,3_87_0,2022-03-01T09:11:34.767Z,,,,1,VA,2148.8859999761626,completion,,,,246444.10000002384,246438.89999997616,244273.347,244280.19999998808,244290.014,246456.724,,white
,Frame,canvas.Frame,3_87,2022-03-01T09:11:34.767Z,,,,1,VA,2154.0860000238463,,,,,246444.30000001192,246444.10000002384,244273.347,244279.30000001192,244290.014,246456.724,,white
,Fixation,canvas.Screen,3_88_0_0,2022-03-01T09:11:37.066Z,,,,0,V,2300.046000000002,timeout,,,,248742.60000002384,248740.103,246440.057,246445.30000001192,246456.724,248756.77,,white
,Stimulus,canvas.Screen,3_88_0_1,2022-03-01T09:11:37.165Z,,,,0,V,100.00200000000768,timeout,,,,248842.10000002384,248840.105,248740.103,248742.89999997616,248756.77,248856.772,,white
,Reaction,canvas.Screen,3_88_0_2,2022-03-01T09:11:37.351Z,,,,0,V,166.92799998808187,response,,stim_detected,keydown(Space),249028.30000001192,249023.69999998808,248840.105,248842.30000001192,248856.772,249040.109,,white
,Trial,flow.Sequence,3_88_0,2022-03-01T09:11:37.352Z,,,,0,V,2566.9759999880916,completion,,,,249028.60000002384,249023.69999998808,246440.057,246445.19999998808,246456.724,249040.109,,white
,Frame,canvas.Frame,3_88,2022-03-01T09:11:37.352Z,,,,0,V,2571.9759999880916,,,,,249028.69999998808,249028.69999998808,246440.057,246444.39999997616,246456.724,249040.109,,white
,Fixation,canvas.Screen,3_89_0_0,2022-03-01T09:11:39.533Z,,,,0,V,2183.3770000000077,timeout,,,,251209.60000002384,251206.819,249023.442,249029.80000001192,249040.109,251223.486,,white
,Stimulus,canvas.Screen,3_89_0_1,2022-03-01T09:11:39.633Z,,,,0,V,100.00200000000768,timeout,,,,251309.30000001192,251306.821,251206.819,251209.89999997616,251223.486,251323.488,,white
,Reaction,canvas.Screen,3_89_0_2,2022-03-01T09:11:39.877Z,,,,0,V,226.21199998806696,response,,stim_detected,keydown(Space),251554.19999998808,251549.69999998808,251306.821,251309.5,251323.488,251556.826,,white
,Trial,flow.Sequence,3_89_0,2022-03-01T09:11:39.878Z,,,,0,V,2509.5909999880823,completion,,,,251554.60000002384,251549.69999998808,249023.442,249029.80000001192,249040.109,251556.826,,white
,Frame,canvas.Frame,3_89,2022-03-01T09:11:39.878Z,,,,0,V,2514.5909999880823,,,,,251554.80000001192,251554.69999998808,249023.442,249028.80000001192,249040.109,251556.826,,white
,Fixation,canvas.Screen,3_90_0_0,2022-03-01T09:11:41.866Z,,,,1,A,2000.0400000000081,timeout,,,,253543,253540.199,251540.159,251555.89999997616,251556.826,253556.866,,grey
,Stimulus,canvas.Screen,3_90_0_1,2022-03-01T09:11:41.966Z,,,,1,A,100.00199999997858,timeout,,,,253642.39999997616,253640.201,253540.199,253543.30000001192,253556.866,253656.868,,grey
,Reaction,canvas.Screen,3_90_0_2,2022-03-01T09:11:42.206Z,,,,1,A,221.63200000001234,response,,stim_detected,keydown(Space),253883.19999998808,253878.5,253640.201,253642.60000002384,253656.868,253890.206,,grey
,Trial,flow.Sequence,3_90_0,2022-03-01T09:11:42.207Z,,,,1,A,2321.673999999999,completion,,,,253883.5,253878.5,251540.159,251555.80000001192,251556.826,253890.206,,grey
,Frame,canvas.Frame,3_90,2022-03-01T09:11:42.207Z,,,,1,A,2326.774000023841,,,,,253883.69999998808,253883.60000002384,251540.159,251554.89999997616,251556.826,253890.206,,grey
,Fixation,canvas.Screen,3_91_0_0,2022-03-01T09:11:43.799Z,,,,1,A,1600.0320000000065,timeout,,,,255476.10000002384,255473.571,253873.539,253884.89999997616,253890.206,255490.238,,grey
,Stimulus,canvas.Screen,3_91_0_1,2022-03-01T09:11:43.899Z,,,,1,A,100.00199999997858,timeout,,,,255575.80000001192,255573.573,255473.571,255476.30000001192,255490.238,255590.24,,grey
,Reaction,canvas.Screen,3_91_0_2,2022-03-01T09:11:44.192Z,,,,1,A,274.15999997616746,response,,stim_detected,keydown(Space),255868.80000001192,255864.39999997616,255573.573,255576,255590.24,255873.579,,grey
,Trial,flow.Sequence,3_91_0,2022-03-01T09:11:44.192Z,,,,1,A,1974.1939999761526,completion,,,,255869.10000002384,255864.39999997616,253873.539,253884.80000001192,253890.206,255873.579,,grey
,Frame,canvas.Frame,3_91,2022-03-01T09:11:44.193Z,,,,1,A,1978.9939999880735,,,,,255869.39999997616,255869.19999998808,253873.539,253883.80000001192,253890.206,255873.579,,grey
,Fixation,canvas.Screen,3_92_0_0,2022-03-01T09:11:45.799Z,,,,1,VA,1616.6989999999932,timeout,,,,257475.80000001192,257473.611,255856.912,255870.39999997616,255873.579,257490.278,,white
,Stimulus,canvas.Screen,3_92_0_1,2022-03-01T09:11:45.898Z,,,,1,VA,100.00200000000768,timeout,,,,257574.69999998808,257573.613,257473.611,257476,257490.278,257590.28,,white
,Reaction,canvas.Screen,3_92_0_2,2022-03-01T09:11:46.140Z,,,,1,VA,221.0200000119221,response,,stim_detected,keydown(Space),257816.10000002384,257811.30000001192,257573.613,257574.80000001192,257590.28,257823.618,,white
,Trial,flow.Sequence,3_92_0,2022-03-01T09:11:46.140Z,,,,1,VA,1937.721000011923,completion,,,,257816.5,257811.30000001192,255856.912,255870.30000001192,255873.579,257823.618,,white
,Frame,canvas.Frame,3_92,2022-03-01T09:11:46.140Z,,,,1,VA,1943.021000023844,,,,,257816.69999998808,257816.60000002384,255856.912,255869.5,255873.579,257823.618,,white
,Fixation,canvas.Screen,3_93_0_0,2022-03-01T09:11:48.499Z,,,,0,V,2366.714000000007,timeout,,,,260175.60000002384,260173.665,257806.951,257817.80000001192,257823.618,260190.332,,white
,Stimulus,canvas.Screen,3_93_0_1,2022-03-01T09:11:48.599Z,,,,0,V,100.00200000000768,timeout,,,,260276,260273.667,260173.665,260175.89999997616,260190.332,260290.334,,white
,Reaction,canvas.Screen,3_93_0_2,2022-03-01T09:11:48.814Z,,,,0,V,195.8659999880765,response,,stim_detected,keydown(Space),260490.5,260486.19999998808,260273.667,260276.10000002384,260290.334,260507.005,,white
,Trial,flow.Sequence,3_93_0,2022-03-01T09:11:48.814Z,,,,0,V,2662.5819999880914,completion,,,,260490.89999997616,260486.19999998808,257806.951,257817.80000001192,257823.618,260507.005,,white
,Frame,canvas.Frame,3_93,2022-03-01T09:11:48.814Z,,,,0,V,2667.2819999761705,,,,,260491,260490.89999997616,257806.951,257816.69999998808,257823.618,260507.005,,white
,Fixation,canvas.Screen,3_94_0_0,2022-03-01T09:11:51.165Z,,,,0,V,2350.0470000000205,timeout,,,,262842,262840.385,260490.338,260492.10000002384,260507.005,262857.052,,white
,Stimulus,canvas.Screen,3_94_0_1,2022-03-01T09:11:51.266Z,,,,0,V,100.00199999997858,timeout,,,,262942.60000002384,262940.387,262840.385,262842.39999997616,262857.052,262957.054,,white
,Reaction,canvas.Screen,3_94_0_2,2022-03-01T09:11:51.456Z,,,,0,V,170.84599997615442,response,,stim_detected,keydown(Space),263132.1999999881,263127.89999997616,262940.387,262942.8000000119,262957.054,263140.391,,white
,Trial,flow.Sequence,3_94_0,2022-03-01T09:11:51.456Z,,,,0,V,2620.8949999761535,completion,,,,263132.5,263127.89999997616,260490.338,260492,260507.005,263140.391,,white
,Frame,canvas.Frame,3_94,2022-03-01T09:11:51.456Z,,,,0,V,2625.595000023837,,,,,263132.6999999881,263132.60000002384,260490.338,260491.10000002384,260507.005,263140.391,,white
,Fixation,canvas.Screen,3_95_0_0,2022-03-01T09:11:53.750Z,,,,0,V,2300.045999999973,timeout,,,,265426.39999997616,265423.77,263123.724,263133.8000000119,263140.391,265440.437,,white
,Stimulus,canvas.Screen,3_95_0_1,2022-03-01T09:11:53.849Z,,,,0,V,100.00200000003679,timeout,,,,265525.5,265523.772,265423.77,265426.60000002384,265440.437,265540.439,,white
,Reaction,canvas.Screen,3_95_0_2,2022-03-01T09:11:55.349Z,,,,0,V,1500.0299999999697,timeout,,,,267025.1999999881,267023.802,265523.772,265525.6999999881,265540.439,267040.469,,white
,Trial,flow.Sequence,3_95_0,2022-03-01T09:11:55.349Z,,,,0,V,3883.411000000022,completion,,,,267025.5,267023.802,263123.724,263133.6999999881,263140.391,267040.469,,white
,Frame,canvas.Frame,3_95,2022-03-01T09:11:55.349Z,,,,0,V,3885.2090000238386,,,,,267025.6999999881,267025.60000002384,263123.724,263132.89999997616,263140.391,267057.136,,white
,Fixation,canvas.Screen,3_96_0_0,2022-03-01T09:11:57.833Z,,,,0,V,2466.716000000015,timeout,,,,269509.10000002384,269507.185,267040.469,267026.8000000119,267057.136,269523.852,,white
,Stimulus,canvas.Screen,3_96_0_1,2022-03-01T09:11:57.933Z,,,,0,V,100.00199999997858,timeout,,,,269609.10000002384,269607.187,269507.185,269509.1999999881,269523.852,269623.854,,white
,Reaction,canvas.Screen,3_96_0_2,2022-03-01T09:11:58.176Z,,,,0,V,224.24600002384977,response,,stim_detected,keydown(Space),269852.89999997616,269848.10000002384,269607.187,269609.39999997616,269623.854,269857.192,,white
,Trial,flow.Sequence,3_96_0,2022-03-01T09:11:58.177Z,,,,0,V,2790.9640000238433,completion,,,,269853.10000002384,269848.10000002384,267040.469,267026.6999999881,267057.136,269857.192,,white
,Frame,canvas.Frame,3_96,2022-03-01T09:11:58.177Z,,,,0,V,2796.0639999880805,,,,,269853.39999997616,269853.1999999881,267040.469,267025.8000000119,267057.136,269857.192,,white
,Fixation,canvas.Screen,3_97_0_0,2022-03-01T09:12:00.466Z,,,,1,A,2300.046000000031,timeout,,,,272142.60000002384,272140.571,269840.525,269854.3000000119,269857.192,272157.238,,grey
,Stimulus,canvas.Screen,3_97_0_1,2022-03-01T09:12:00.565Z,,,,1,A,100.00199999997858,timeout,,,,272241.89999997616,272240.573,272140.571,272142.8000000119,272157.238,272257.24,,grey
,Reaction,canvas.Screen,3_97_0_2,2022-03-01T09:12:00.900Z,,,,1,A,314.36000002385117,response,,stim_detected,keydown(Space),272576.10000002384,272571.60000002384,272240.573,272242.10000002384,272257.24,272590.58,,grey
,Trial,flow.Sequence,3_97_0,2022-03-01T09:12:00.900Z,,,,1,A,2714.408000023861,completion,,,,272576.39999997616,272571.60000002384,269840.525,269854.1999999881,269857.192,272590.58,,grey
,Frame,canvas.Frame,3_97,2022-03-01T09:12:00.900Z,,,,1,A,2719.408000023861,,,,,272576.60000002384,272576.60000002384,269840.525,269853.39999997616,269857.192,272590.58,,grey
,Fixation,canvas.Screen,3_98_0_0,2022-03-01T09:12:02.765Z,,,,1,A,1866.7039999999688,timeout,,,,274442,274440.617,272573.913,272577.8000000119,272590.58,274457.284,,grey
,Stimulus,canvas.Screen,3_98_0_1,2022-03-01T09:12:02.866Z,,,,1,A,100.00200000003679,timeout,,,,274542.1999999881,274540.619,274440.617,274442.1999999881,274457.284,274557.286,,grey
,Reaction,canvas.Screen,3_98_0_2,2022-03-01T09:12:03.253Z,,,,1,A,367.31400002382,response,,stim_detected,keydown(Space),274929.5,274924.60000002384,274540.619,274542.3000000119,274557.286,274940.627,,grey
,Trial,flow.Sequence,3_98_0,2022-03-01T09:12:03.253Z,,,,1,A,2334.0200000238256,completion,,,,274929.8000000119,274924.60000002384,272573.913,272577.6999999881,272590.58,274940.627,,grey
,Frame,canvas.Frame,3_98,2022-03-01T09:12:03.254Z,,,,1,A,2339.4199999999837,,,,,274930.3000000119,274930,272573.913,272576.8000000119,272590.58,274940.627,,grey
,Fixation,canvas.Screen,3_99_0_0,2022-03-01T09:12:05.300Z,,,,1,VA,2050.0410000000265,timeout,,,,276976.39999997616,276974.001,274923.96,274931.39999997616,274940.627,276990.668,,white
,Stimulus,canvas.Screen,3_99_0_1,2022-03-01T09:12:05.400Z,,,,1,VA,100.00199999997858,timeout,,,,277076.39999997616,277074.003,276974.001,276976.60000002384,276990.668,277090.67,,white
,Reaction,canvas.Screen,3_99_0_2,2022-03-01T09:12:05.657Z,,,,1,VA,238.72999997617444,response,,stim_detected,keydown(Space),277333.8000000119,277329.39999997616,277074.003,277076.89999997616,277090.67,277357.342,,white
,Trial,flow.Sequence,3_99_0,2022-03-01T09:12:05.658Z,,,,1,VA,2388.7729999761796,completion,,,,277334.10000002384,277329.39999997616,274923.96,274931.39999997616,274940.627,277357.342,,white
,Frame,canvas.Frame,3_99,2022-03-01T09:12:05.658Z,,,,1,VA,2393.5729999881005,,,,,277334.3000000119,277334.1999999881,274923.96,274930.5,274940.627,277357.342,,white
,Loop,flow.Loop,3,2022-03-01T09:12:05.658Z,,,,,,250015.19199998808,completion,,,,277334.60000002384,277334.1999999881,27302.341,27305.19999998808,27319.008,277357.342,,
,end,html.Page,4,2022-03-01T09:12:07.823Z,,,,,,2141.857999988075,form submission,,,,279499.8000000119,279499.1999999881,277340.675,277334.8000000119,277357.342,279507.385,,
,root,flow.Sequence,,2022-03-01T09:12:07.825Z,,,,,,278497.3849999881,completion,,,,279500.89999997616,279499.1999999881,985.148,994.6999999880791,1001.815,279507.385,,