id,sender,sender_type,sender_id,timestamp,meta,,age,aud,condition,duration,ended_on,gender,response,response_action,time_commit,time_end,time_render,time_run,time_show,time_switch,url,vis
Ari Tenenbaum,Hello,html.Page,0,2022-03-01T10:19:19.493Z,"{""labjs_version"":""20.2.4"",""labjs_build"":{""flavor"":""development"",""commit"":""f5b4a49f956347addd546a832a3327688c2c0fef""},""location"":""https://labjs.felixhenninger.com/api/labjs_preview/index.html"",""userAgent"":""Mozilla/5.0 (Macintosh; Intel Mac OS X 10_15_7) AppleWebKit/537.36 (KHTML, like Gecko) Chrome/98.0.4758.80 Safari/537.36"",""platform"":""MacIntel"",""language"":""de-DE"",""locale"":""de"",""timeZone"":""Europe/Berlin"",""timezoneOffset"":-60,""screen_width"":1440,""screen_height"":900,""scroll_width"":1440,""scroll_height"":708,""window_innerWidth"":1440,""window_innerHeight"":756,""devicePixelRatio"":1}",,10,,,9077.063999952315,form submission,nb,,,10065.899999976158,10065.299999952316,971.569,979.8999999761581,988.236,10055.084,{},
,Instructions,html.Page,1,2022-03-01T10:19:20.210Z,,,,,,727.3159999761574,form submission,,,,10783,10782.399999976158,10038.417,10066.299999952316,10055.084,10788.432,,
,Change Background,canvas.Screen,2,2022-03-01T10:19:23.202Z,,,,,,3000.0599999999995,timeout,,,,13774.699999988079,13771.825,10771.765,10783.5,10788.432,13788.492,,
,Fixation,canvas.Screen,3_0_0_0,2022-03-01T10:19:25.519Z,,,,1,A,2316.7129999999997,timeout,,,,16091.099999964237,16088.538,13771.825,13776.299999952316,13788.492,16105.205,,grey
,Stimulus,canvas.Screen,3_0_0_1,2022-03-01T10:19:25.619Z,,,,1,A,100.00200000000041,timeout,,,,16191.399999976158,16188.54,16088.538,16091.399999976158,16105.205,16205.207,,grey
,Reaction,canvas.Screen,3_0_0_2,2022-03-01T10:19:25.918Z,,,,1,A,280.1929999761578,response,,stim_detected,keydown(Space),16490.399999976158,16485.399999976158,16188.54,16191.699999988079,16205.207,16505.213,,grey
,Trial,flow.Sequence,3_0_0,2022-03-01T10:19:25.918Z,,,,1,A,2696.907999976158,completion,,,,16491,16485.399999976158,13771.825,13776.099999964237,13788.492,16505.213,,grey
,Frame,canvas.Frame,3_0,2022-03-01T10:19:25.919Z,,,,1,A,2702.607999964237,,,,,16491.19999998808,16491.099999964237,13771.825,13775.099999964237,13788.492,16505.213,,grey
,Fixation,canvas.Screen,3_1_0_0,2022-03-01T10:19:27.502Z,,,,0,V,1583.3650000000016,timeout,,,,18074.69999998808,18071.911,16488.546,16492.399999976158,16505.213,18088.578,,white
,Stimulus,canvas.Screen,3_1_0_1,2022-03-01T10:19:27.602Z,,,,0,V,100.00200000000041,timeout,,,,18174.19999998808,18171.913,18071.911,18075.19999998808,18088.578,18188.58,,white
,Reaction,canvas.Screen,3_1_0_2,2022-03-01T10:19:27.829Z,,,,0,V,207.01999996423547,response,,stim_detected,keydown(Space),18401.299999952316,18395.599999964237,18171.913,18174.5,18188.58,18405.251,,white
,Trial,flow.Sequence,3_1_0,2022-03-01T10:19:27.829Z,,,,0,V,1890.3869999642375,completion,,,,18401.799999952316,18395.599999964237,16488.546,16492.399999976158,16505.213,18405.251,,white
,Frame,canvas.Frame,3_1,2022-03-01T10:19:27.830Z,,,,0,V,1896.6869999761584,,,,,18402.099999964237,18401.899999976158,16488.546,16491.399999976158,16505.213,18405.251,,white
,Fixation,canvas.Screen,3_2_0_0,2022-03-01T10:19:30.302Z,,,,0,V,2483.382999999998,timeout,,,,20874.299999952316,20871.967,18388.584,18403.299999952316,18405.251,20888.634,,white
,Stimulus,canvas.Screen,3_2_0_1,2022-03-01T10:19:30.402Z,,,,0,V,100.00200000000041,timeout,,,,20974.5,20971.969,20871.967,20874.5,20888.634,20988.636,,white
,Reaction,canvas.Screen,3_2_0_2,2022-03-01T10:19:30.593Z,,,,0,V,171.8640000000014,response,,stim_detected,keydown(Space),21165.299999952316,21160.5,20971.969,20974.69999998808,20988.636,21171.973,,white
,Trial,flow.Sequence,3_2_0,2022-03-01T10:19:30.593Z,,,,0,V,2755.249,completion,,,,21165.69999998808,21160.5,18388.584,18403.19999998808,18405.251,21171.973,,white
,Frame,canvas.Frame,3_2,2022-03-01T10:19:30.594Z,,,,0,V,2760.948999988079,,,,,21166.299999952316,21166.19999998808,18388.584,18402.19999998808,18405.251,21171.973,,white
,Fixation,canvas.Screen,3_3_0_0,2022-03-01T10:19:32.135Z,,,,1,VA,1550.030999999999,timeout,,,,22707.69999998808,22705.337,21155.306,21167.599999964237,21171.973,22722.004,,white
,Stimulus,canvas.Screen,3_3_0_1,2022-03-01T10:19:32.236Z,,,,1,VA,100.00200000000041,timeout,,,,22807.899999976158,22805.339,22705.337,22708,22722.004,22822.006,,white
,Reaction,canvas.Screen,3_3_0_2,2022-03-01T10:19:32.398Z,,,,1,VA,143.593999964236,response,,stim_detected,keydown(Space),22970,22965.599999964237,22805.339,22808.099999964237,22822.006,22972.009,,white
,Trial,flow.Sequence,3_3_0,2022-03-01T10:19:32.398Z,,,,1,VA,1793.6269999642354,completion,,,,22970.299999952316,22965.599999964237,21155.306,21167.5,21171.973,22972.009,,white
,Frame,canvas.Frame,3_3,2022-03-01T10:19:32.398Z,,,,1,VA,1798.3269999523145,,,,,22970.399999976158,22970.299999952316,21155.306,21166.5,21171.973,22972.009,,white
,Fixation,canvas.Screen,3_4_0_0,2022-03-01T10:19:34.186Z,,,,1,A,1800.036,timeout,,,,24758,24755.378,22955.342,22971.69999998808,22972.009,24772.045,,grey
,Stimulus,canvas.Screen,3_4_0_1,2022-03-01T10:19:34.286Z,,,,1,A,100.00200000000041,timeout,,,,24857.69999998808,24855.38,24755.378,24758.299999952316,24772.045,24872.047,,grey
,Reaction,canvas.Screen,3_4_0_2,2022-03-01T10:19:34.528Z,,,,1,A,224.35299997615948,response,,stim_detected,keydown(Space),25100.599999964237,25096.399999976158,24855.38,24858.099999964237,24872.047,25105.385,,grey
,Trial,flow.Sequence,3_4_0,2022-03-01T10:19:34.529Z,,,,1,A,2124.39099997616,completion,,,,25100.899999976158,25096.399999976158,22955.342,22971.69999998808,22972.009,25105.385,,grey
,Frame,canvas.Frame,3_4,2022-03-01T10:19:34.529Z,,,,1,A,2128.991000000002,,,,,25101.299999952316,25101,22955.342,22970.599999964237,22972.009,25105.385,,grey
,Fixation,canvas.Screen,3_5_0_0,2022-03-01T10:19:36.736Z,,,,0,V,2216.711000000003,timeout,,,,27307.899999976158,27305.429,25088.718,25102.599999964237,25105.385,27322.096,,white
,Stimulus,canvas.Screen,3_5_0_1,2022-03-01T10:19:36.835Z,,,,0,V,100.00200000000041,timeout,,,,27407.299999952316,27405.431,27305.429,27308.19999998808,27322.096,27422.098,,white
,Reaction,canvas.Screen,3_5_0_2,2022-03-01T10:19:37.058Z,,,,0,V,203.00199996423544,response,,stim_detected,keydown(Space),27629.799999952316,27625.099999964237,27405.431,27407.399999976158,27422.098,27638.769,,white
,Trial,flow.Sequence,3_5_0,2022-03-01T10:19:37.058Z,,,,0,V,2519.714999964239,completion,,,,27630.099999964237,27625.099999964237,25088.718,25102.399999976158,25105.385,27638.769,,white
,Frame,canvas.Frame,3_5,2022-03-01T10:19:37.058Z,,,,0,V,2524.8149999880807,,,,,27630.299999952316,27630.19999998808,25088.718,25101.5,25105.385,27638.769,,white
,Fixation,canvas.Screen,3_6_0_0,2022-03-01T10:19:38.569Z,,,,0,V,1516.6970000000001,timeout,,,,29141.19999998808,29138.799,27622.102,27631.399999976158,27638.769,29155.466,,white
,Stimulus,canvas.Screen,3_6_0_1,2022-03-01T10:19:38.669Z,,,,0,V,100.00200000000041,timeout,,,,29241.299999952316,29238.801,29138.799,29141.399999976158,29155.466,29255.468,,white
,Reaction,canvas.Screen,3_6_0_2,2022-03-01T10:19:38.842Z,,,,0,V,153.63199996423646,response,,stim_detected,keydown(Space),29413.599999964237,29409.099999964237,29238.801,29241.5,29255.468,29422.138,,white
,Trial,flow.Sequence,3_6_0,2022-03-01T10:19:38.842Z,,,,0,V,1770.330999964237,completion,,,,29413.899999976158,29409.099999964237,27622.102,27631.399999976158,27638.769,29422.138,,white
,Frame,canvas.Frame,3_6,2022-03-01T10:19:38.842Z,,,,0,V,1775.2309999999998,,,,,29414.099999964237,29414,27622.102,27630.399999976158,27638.769,29422.138,,white
,Fixation,canvas.Screen,3_7_0_0,2022-03-01T10:19:40.652Z,,,,0,V,1816.7030000000013,timeout,,,,31224.19999998808,31222.174,29405.471,29415.299999952316,29422.138,31238.841,,white
,Stimulus,canvas.Screen,3_7_0_1,2022-03-01T10:19:40.753Z,,,,0,V,100.00200000000041,timeout,,,,31324.5,31322.176,31222.174,31224.5,31238.841,31338.843,,white
,Reaction,canvas.Screen,3_7_0_2,2022-03-01T10:19:40.923Z,,,,0,V,151.55699997615739,response,,stim_detected,keydown(Space),31495.5,31490.399999976158,31322.176,31324.799999952316,31338.843,31505.513,,white
,Trial,flow.Sequence,3_7_0,2022-03-01T10:19:40.924Z,,,,0,V,2068.261999976159,completion,,,,31495.799999952316,31490.399999976158,29405.471,29415.19999998808,29422.138,31505.513,,white
,Frame,canvas.Frame,3_7,2022-03-01T10:19:40.924Z,,,,0,V,2073.761999976159,,,,,31496,31495.899999976158,29405.471,29414.299999952316,29422.138,31505.513,,white
,Fixation,canvas.Screen,3_8_0_0,2022-03-01T10:19:42.785Z,,,,1,A,1866.703999999998,timeout,,,,33357.09999996424,33355.55,31488.846,31497.19999998808,31505.513,33372.217,,grey
,Stimulus,canvas.Screen,3_8_0_1,2022-03-01T10:19:42.885Z,,,,1,A,100.00200000000041,timeout,,,,33457.09999996424,33455.552,33355.55,33357.299999952316,33372.217,33472.219,,grey
,Reaction,canvas.Screen,3_8_0_2,2022-03-01T10:19:42.907Z,,,,1,A,1.7810000000026776,response,,stim_detected,keydown(Space),33479,33474,33455.552,33457.299999952316,33472.219,33505.553,,grey
,Trial,flow.Sequence,3_8_0,2022-03-01T10:19:42.907Z,,,,1,A,1968.487000000001,completion,,,,33479.39999997616,33474,31488.846,31497.099999964237,31505.513,33505.553,,grey
,Frame,canvas.Frame,3_8,2022-03-01T10:19:42.908Z,,,,1,A,1973.8869999761591,,,,,33479.5,33479.39999997616,31488.846,31496.099999964237,31505.513,33505.553,,grey
,Fixation,canvas.Screen,3_9_0_0,2022-03-01T10:19:44.536Z,,,,0,V,1616.6990000000005,timeout,,,,35108.09999996424,35105.585,33488.886,33480.69999998808,33505.553,35122.252,,white
,Stimulus,canvas.Screen,3_9_0_1,2022-03-01T10:19:44.636Z,,,,0,V,100.00200000000041,timeout,,,,35207.89999997616,35205.587,35105.585,35108.299999952316,35122.252,35222.254,,white
,Reaction,canvas.Screen,3_9_0_2,2022-03-01T10:19:44.815Z,,,,0,V,159.54599995231547,response,,stim_detected,keydown(Space),35386.39999997616,35381.799999952316,35205.587,35208.09999996424,35222.254,35388.924,,white
,Trial,flow.Sequence,3_9_0,2022-03-01T10:19:44.815Z,,,,0,V,1876.2469999523164,completion,,,,35386.69999998808,35381.799999952316,33488.886,33480.59999996424,33505.553,35388.924,,white
,Frame,canvas.Frame,3_9,2022-03-01T10:19:44.815Z,,,,0,V,1881.2469999523164,,,,,35386.89999997616,35386.799999952316,33488.886,33479.69999998808,33505.553,35388.924,,white
,Fixation,canvas.Screen,3_10_0_0,2022-03-01T10:19:46.535Z,,,,0,V,1733.3680000000022,timeout,,,,37107,37105.625,35372.257,35388,35388.924,37122.292,,white
,Stimulus,canvas.Screen,3_10_0_1,2022-03-01T10:19:46.635Z,,,,0,V,100.00200000000041,timeout,,,,37207.299999952316,37205.627,37105.625,37107.19999998808,37122.292,37222.294,,white
,Reaction,canvas.Screen,3_10_0_2,2022-03-01T10:19:46.807Z,,,,0,V,151.5059999523146,response,,stim_detected,keydown(Space),37378.5,37373.799999952316,37205.627,37207.5,37222.294,37422.298,,white
,Trial,flow.Sequence,3_10_0,2022-03-01T10:19:46.807Z,,,,0,V,1984.8759999523172,completion,,,,37378.89999997616,37373.799999952316,35372.257,35388,35388.924,37422.298,,white
,Frame,canvas.Frame,3_10,2022-03-01T10:19:46.807Z,,,,0,V,1990.076000000001,,,,,37379.19999998808,37379,35372.257,35387.09999996424,35388.924,37422.298,,white
,Fixation,canvas.Screen,3_11_0_0,2022-03-01T10:19:48.985Z,,,,1,A,2150.042999999998,timeout,,,,39556.89999997616,39555.674,37372.297,37380.299999952316,37422.298,39572.341,,grey
,Stimulus,canvas.Screen,3_11_0_1,2022-03-01T10:19:49.087Z,,,,1,A,100.00200000000041,timeout,,,,39658.5,39655.676,39555.674,39557.09999996424,39572.341,39672.343,,grey
,Reaction,canvas.Screen,3_11_0_2,2022-03-01T10:19:50.586Z,,,,1,A,1500.0299999999988,timeout,,,,41158,41155.706,39655.676,39658.69999998808,39672.343,41172.373,,grey
,Trial,flow.Sequence,3_11_0,2022-03-01T10:19:50.587Z,,,,1,A,3733.407999999996,completion,,,,41158.39999997616,41155.706,37372.297,37380.299999952316,37422.298,41172.373,,grey
,Frame,canvas.Frame,3_11,2022-03-01T10:19:50.587Z,,,,1,A,3736.2019999999975,,,,,41158.59999996424,41158.5,37372.297,37379.39999997616,37422.298,41189.04,,grey
,Fixation,canvas.Screen,3_12_0_0,2022-03-01T10:19:52.120Z,,,,1,A,1516.6970000000001,timeout,,,,42691.59999996424,42689.07,41172.373,41159.69999998808,41189.04,42705.737,,grey
,Stimulus,canvas.Screen,3_12_0_1,2022-03-01T10:19:52.219Z,,,,1,A,100.00200000000041,timeout,,,,42791.09999996424,42789.072,42689.07,42691.69999998808,42705.737,42805.739,,grey
,Reaction,canvas.Screen,3_12_0_2,2022-03-01T10:19:52.466Z,,,,1,A,226.7609999999986,response,,stim_detected,keydown(Space),43037.299999952316,43032.5,42789.072,42791.39999997616,42805.739,43039.077,,grey
,Trial,flow.Sequence,3_12_0,2022-03-01T10:19:52.466Z,,,,1,A,1843.4599999999991,completion,,,,43037.59999996424,43032.5,41172.373,41159.59999996424,41189.04,43039.077,,grey
,Frame,canvas.Frame,3_12,2022-03-01T10:19:52.466Z,,,,1,A,1848.6599999880782,,,,,43037.799999952316,43037.69999998808,41172.373,41158.69999998808,41189.04,43039.077,,grey
,Fixation,canvas.Screen,3_13_0_0,2022-03-01T10:19:54.436Z,,,,1,A,1983.3729999999996,timeout,,,,45007.89999997616,45005.783,43022.41,43038.799999952316,43039.077,45022.45,,grey
,Stimulus,canvas.Screen,3_13_0_1,2022-03-01T10:19:54.536Z,,,,1,A,100.00200000000041,timeout,,,,45107.69999998808,45105.785,45005.783,45008.09999996424,45022.45,45122.452,,grey
,Reaction,canvas.Screen,3_13_0_2,2022-03-01T10:19:54.704Z,,,,1,A,148.94799997616065,response,,stim_detected,keydown(Space),45275.799999952316,45271.39999997616,45105.785,45108,45122.452,45289.122,,grey
,Trial,flow.Sequence,3_13_0,2022-03-01T10:19:54.704Z,,,,1,A,2232.3229999761606,completion,,,,45276,45271.39999997616,43022.41,43038.69999998808,43039.077,45289.122,,grey
,Frame,canvas.Frame,3_13,2022-03-01T10:19:54.705Z,,,,1,A,2237.1229999880816,,,,,45276.299999952316,45276.19999998808,43022.41,43038,43039.077,45289.122,,grey
,Fixation,canvas.Screen,3_14_0_0,2022-03-01T10:19:57.187Z,,,,1,VA,2483.3829999999944,timeout,,,,47758.19999998808,47755.838,45272.455,45277.39999997616,45289.122,47772.505,,white
,Stimulus,canvas.Screen,3_14_0_1,2022-03-01T10:19:57.287Z,,,,1,VA,100.00200000000041,timeout,,,,47858.09999996424,47855.84,47755.838,47758.5,47772.505,47872.507,,white
,Reaction,canvas.Screen,3_14_0_2,2022-03-01T10:19:57.446Z,,,,1,VA,140.69299998808128,response,,stim_detected,keydown(Space),48017.89999997616,48013.19999998808,47855.84,47858.39999997616,47872.507,48022.51,,white
,Trial,flow.Sequence,3_14_0,2022-03-01T10:19:57.447Z,,,,1,VA,2724.077999988076,completion,,,,48018.09999996424,48013.19999998808,45272.455,45277.299999952316,45289.122,48022.51,,white
,Frame,canvas.Frame,3_14,2022-03-01T10:19:57.447Z,,,,1,VA,2729.077999988076,,,,,48018.39999997616,48018.19999998808,45272.455,45276.39999997616,45289.122,48022.51,,white
,Fixation,canvas.Screen,3_15_0_0,2022-03-01T10:19:59.369Z,,,,1,VA,1933.3719999999958,timeout,,,,49940.799999952316,49939.215,48005.843,48019.299999952316,48022.51,49955.882,,white
,Stimulus,canvas.Screen,3_15_0_1,2022-03-01T10:19:59.469Z,,,,1,VA,100.00200000000041,timeout,,,,50041,50039.217,49939.215,49941.39999997616,49955.882,50055.884,,white
,Reaction,canvas.Screen,3_15_0_2,2022-03-01T10:19:59.632Z,,,,1,VA,143.1160000000018,response,,stim_detected,keydown(Space),50203.5,50199,50039.217,50041.19999998808,50055.884,50205.887,,white
,Trial,flow.Sequence,3_15_0,2022-03-01T10:19:59.632Z,,,,1,VA,2176.489999999998,completion,,,,50203.799999952316,50199,48005.843,48019.299999952316,48022.51,50205.887,,white
,Frame,canvas.Frame,3_15,2022-03-01T10:19:59.633Z,,,,1,VA,2181.389999976156,,,,,50204,50203.89999997616,48005.843,48018.39999997616,48022.51,50205.887,,white
,Fixation,canvas.Screen,3_16_0_0,2022-03-01T10:20:01.502Z,,,,1,VA,1883.3709999999992,timeout,,,,52073.799999952316,52072.591,50189.22,50205.39999997616,50205.887,52089.258,,white
,Stimulus,canvas.Screen,3_16_0_1,2022-03-01T10:20:01.604Z,,,,1,VA,100.00200000000041,timeout,,,,52175.299999952316,52172.593,52072.591,52073.89999997616,52089.258,52189.26,,white
,Reaction,canvas.Screen,3_16_0_2,2022-03-01T10:20:01.742Z,,,,1,VA,119.73999999999796,response,,stim_detected,keydown(Space),52313.69999998808,52309,52172.593,52175.39999997616,52189.26,52322.596,,white
,Trial,flow.Sequence,3_16_0,2022-03-01T10:20:01.742Z,,,,1,VA,2103.1129999999976,completion,,,,52314,52309,50189.22,50205.39999997616,50205.887,52322.596,,white
,Frame,canvas.Frame,3_16,2022-03-01T10:20:01.743Z,,,,1,VA,2108.1129999999976,,,,,52314.09999996424,52314,50189.22,50204.19999998808,50205.887,52322.596,,white
,Fixation,canvas.Screen,3_17_0_0,2022-03-01T10:20:04.187Z,,,,1,VA,2450.048999999999,timeout,,,,54758.39999997616,54755.978,52305.929,52316.59999996424,52322.596,54772.645,,white
,Stimulus,canvas.Screen,3_17_0_1,2022-03-01T10:20:04.287Z,,,,1,VA,100.00200000000041,timeout,,,,54858.69999998808,54855.98,54755.978,54758.59999996424,54772.645,54872.647,,white
,Reaction,canvas.Screen,3_17_0_2,2022-03-01T10:20:04.520Z,,,,1,VA,214.05299998808187,response,,stim_detected,keydown(Space),55091.59999996424,55086.69999998808,54855.98,54859,54872.647,55105.985,,white
,Trial,flow.Sequence,3_17_0,2022-03-01T10:20:04.521Z,,,,1,VA,2764.1039999880813,completion,,,,55092,55086.69999998808,52305.929,52316.5,52322.596,55105.985,,white
,Frame,canvas.Frame,3_17,2022-03-01T10:20:04.521Z,,,,1,VA,2769.6039999880813,,,,,55092.299999952316,55092.19999998808,52305.929,52314.19999998808,52322.596,55105.985,,white
,Fixation,canvas.Screen,3_18_0_0,2022-03-01T10:20:06.820Z,,,,1,VA,2300.046000000002,timeout,,,,57391.299999952316,57389.364,55089.318,55093.39999997616,55105.985,57406.031,,white
,Stimulus,canvas.Screen,3_18_0_1,2022-03-01T10:20:06.920Z,,,,1,VA,100.00200000000041,timeout,,,,57491.299999952316,57489.366,57389.364,57391.39999997616,57406.031,57506.033,,white
,Reaction,canvas.Screen,3_18_0_2,2022-03-01T10:20:07.156Z,,,,1,VA,216.666999988076,response,,stim_detected,keydown(Space),57727,57722.69999998808,57489.366,57491.59999996424,57506.033,57739.371,,white
,Trial,flow.Sequence,3_18_0,2022-03-01T10:20:07.156Z,,,,1,VA,2616.7149999880785,completion,,,,57727.299999952316,57722.69999998808,55089.318,55093.299999952316,55105.985,57739.371,,white
,Frame,canvas.Frame,3_18,2022-03-01T10:20:07.156Z,,,,1,VA,2621.5149999999994,,,,,57727.5,57727.5,55089.318,55092.39999997616,55105.985,57739.371,,white
,Fixation,canvas.Screen,3_19_0_0,2022-03-01T10:20:08.753Z,,,,1,A,1600.0319999999992,timeout,,,,59324.19999998808,59322.736,57722.704,57728.59999996424,57739.371,59339.403,,grey
,Stimulus,canvas.Screen,3_19_0_1,2022-03-01T10:20:08.854Z,,,,1,A,100.00200000000041,timeout,,,,59424.89999997616,59422.738,59322.736,59324.39999997616,59339.403,59439.405,,grey
,Reaction,canvas.Screen,3_19_0_2,2022-03-01T10:20:09.190Z,,,,1,A,317.1949999642384,response,,stim_detected,keydown(Space),59760.89999997616,59756.59999996424,59422.738,59425.09999996424,59439.405,59772.745,,grey
,Trial,flow.Sequence,3_19_0,2022-03-01T10:20:09.190Z,,,,1,A,2017.228999964238,completion,,,,59761.19999998808,59756.59999996424,57722.704,57728.5,57739.371,59772.745,,grey
,Frame,canvas.Frame,3_19,2022-03-01T10:20:09.190Z,,,,1,A,2021.8289999880799,,,,,59761.5,59761.19999998808,57722.704,57727.69999998808,57739.371,59772.745,,grey
,Fixation,canvas.Screen,3_20_0_0,2022-03-01T10:20:11.270Z,,,,1,VA,2083.375,timeout,,,,61841.59999996424,61839.453,59756.078,59762.39999997616,59772.745,61856.12,,white
,Stimulus,canvas.Screen,3_20_0_1,2022-03-01T10:20:11.371Z,,,,1,VA,100.00200000000041,timeout,,,,61942.19999998808,61939.455,61839.453,61841.799999952316,61856.12,61956.122,,white
,Reaction,canvas.Screen,3_20_0_2,2022-03-01T10:20:11.684Z,,,,1,VA,296.07799998807604,response,,stim_detected,keydown(Space),62255.19999998808,62252.19999998808,61939.455,61942.39999997616,61956.122,62272.795,,white
,Trial,flow.Sequence,3_20_0,2022-03-01T10:20:11.684Z,,,,1,VA,2479.4549999880765,completion,,,,62255.39999997616,62252.19999998808,59756.078,59762.299999952316,59772.745,62272.795,,white
,Frame,canvas.Frame,3_20,2022-03-01T10:20:11.684Z,,,,1,VA,2482.6549999761555,,,,,62255.5,62255.39999997616,59756.078,59761.5,59772.745,62272.795,,white
,Fixation,canvas.Screen,3_21_0_0,2022-03-01T10:20:14.003Z,,,,1,A,2316.7130000000034,timeout,,,,64574.19999998808,64572.841,62256.128,62256.09999996424,62272.795,64589.508,,grey
,Stimulus,canvas.Screen,3_21_0_1,2022-03-01T10:20:14.103Z,,,,1,A,100.00200000000041,timeout,,,,64674,64672.843,64572.841,64574.299999952316,64589.508,64689.51,,grey
,Reaction,canvas.Screen,3_21_0_2,2022-03-01T10:20:14.533Z,,,,1,A,409.68999998807703,response,,stim_detected,keydown(Space),65104.39999997616,65099.19999998808,64672.843,64674.59999996424,64689.51,65122.852,,grey
,Trial,flow.Sequence,3_21_0,2022-03-01T10:20:14.533Z,,,,1,A,2826.404999988081,completion,,,,65104.69999998808,65099.19999998808,62256.128,62256.09999996424,62272.795,65122.852,,grey
,Frame,canvas.Frame,3_21,2022-03-01T10:20:14.534Z,,,,1,A,2831.904999988081,,,,,65104.69999998808,65104.69999998808,62256.128,62255.59999996424,62272.795,65122.852,,grey
,Fixation,canvas.Screen,3_22_0_0,2022-03-01T10:20:16.820Z,,,,1,A,2283.379000000001,timeout,,,,67391.39999997616,67389.564,65106.185,65105.69999998808,65122.852,67406.231,,grey
,Stimulus,canvas.Screen,3_22_0_1,2022-03-01T10:20:16.921Z,,,,1,A,100.00199999999313,timeout,,,,67491.69999998808,67489.566,67389.564,67391.69999998808,67406.231,67506.233,,grey
,Reaction,canvas.Screen,3_22_0_2,2022-03-01T10:20:17.269Z,,,,1,A,330.66699997616524,response,,stim_detected,keydown(Space),67840,67836.89999997616,67489.566,67491.89999997616,67506.233,67856.24,,grey
,Trial,flow.Sequence,3_22_0,2022-03-01T10:20:17.269Z,,,,1,A,2714.047999976159,completion,,,,67840.19999998808,67836.89999997616,65106.185,65105.59999996424,65122.852,67856.24,,grey
,Frame,canvas.Frame,3_22,2022-03-01T10:20:17.269Z,,,,1,A,2717.34799998808,,,,,67840.29999995232,67840.19999998808,65106.185,65104.89999997616,65122.852,67856.24,,grey
,Fixation,canvas.Screen,3_23_0_0,2022-03-01T10:20:19.538Z,,,,0,V,2266.7119999999995,timeout,,,,70108.79999995232,70106.285,67839.573,67840.89999997616,67856.24,70122.952,,white
,Stimulus,canvas.Screen,3_23_0_1,2022-03-01T10:20:19.639Z,,,,0,V,100.00199999999313,timeout,,,,70210.29999995232,70206.287,70106.285,70109,70122.952,70222.954,,white
,Reaction,canvas.Screen,3_23_0_2,2022-03-01T10:20:19.831Z,,,,0,V,176.74599998808117,response,,stim_detected,keydown(Space),70402.29999995232,70399.69999998808,70206.287,70210.5,70222.954,70406.291,,white
,Trial,flow.Sequence,3_23_0,2022-03-01T10:20:19.832Z,,,,0,V,2543.459999988074,completion,,,,70402.5,70399.69999998808,67839.573,67840.89999997616,67856.24,70406.291,,white
,Frame,canvas.Frame,3_23,2022-03-01T10:20:19.832Z,,,,0,V,2546.2599999999948,,,,,70402.59999996424,70402.5,67839.573,67840.5,67856.24,70406.291,,white
,Fixation,canvas.Screen,3_24_0_0,2022-03-01T10:20:21.404Z,,,,0,V,1583.3650000000052,timeout,,,,71975.29999995232,71972.989,70389.624,70403.19999998808,70406.291,71989.656,,white
,Stimulus,canvas.Screen,3_24_0_1,2022-03-01T10:20:21.505Z,,,,0,V,100.00199999999313,timeout,,,,72075.5,72072.991,71972.989,71975.5,71989.656,72089.658,,white
,Reaction,canvas.Screen,3_24_0_2,2022-03-01T10:20:21.708Z,,,,0,V,185.24199997616233,response,,stim_detected,keydown(Space),72279.19999998808,72274.89999997616,72072.991,72075.69999998808,72089.658,72289.662,,white
,Trial,flow.Sequence,3_24_0,2022-03-01T10:20:21.709Z,,,,0,V,1868.6089999761607,completion,,,,72279.5,72274.89999997616,70389.624,70403.19999998808,70406.291,72289.662,,white
,Frame,canvas.Frame,3_24,2022-03-01T10:20:21.709Z,,,,0,V,1873.3089999642398,,,,,72279.69999998808,72279.59999996424,70389.624,70402.69999998808,70406.291,72289.662,,white
,Fixation,canvas.Screen,3_25_0_0,2022-03-01T10:20:23.270Z,,,,0,V,1566.698000000004,timeout,,,,73841.09999996424,73839.693,72272.995,72280.69999998808,72289.662,73856.36,,white
,Stimulus,canvas.Screen,3_25_0_1,2022-03-01T10:20:23.370Z,,,,0,V,100.00199999999313,timeout,,,,73941.39999997616,73939.695,73839.693,73841.29999995232,73856.36,73956.362,,white
,Reaction,canvas.Screen,3_25_0_2,2022-03-01T10:20:23.557Z,,,,0,V,167.43799995232257,response,,stim_detected,keydown(Space),74128.39999997616,74123.79999995232,73939.695,73941.5,73956.362,74139.699,,white
,Trial,flow.Sequence,3_25_0,2022-03-01T10:20:23.558Z,,,,0,V,1834.1379999523197,completion,,,,74128.69999998808,74123.79999995232,72272.995,72280.59999996424,72289.662,74139.699,,white
,Frame,canvas.Frame,3_25,2022-03-01T10:20:23.558Z,,,,0,V,1839.0379999880824,,,,,74128.89999997616,74128.69999998808,72272.995,72279.79999995232,72289.662,74139.699,,white
,Fixation,canvas.Screen,3_26_0_0,2022-03-01T10:20:25.775Z,,,,0,V,2216.7110000000102,timeout,,,,76345.5,76339.743,74123.032,74129.79999995232,74139.699,76356.41,,white
,Stimulus,canvas.Screen,3_26_0_1,2022-03-01T10:20:25.871Z,,,,0,V,100.00199999999313,timeout,,,,76441.39999997616,76439.745,76339.743,76345.59999996424,76356.41,76456.412,,white
,Reaction,canvas.Screen,3_26_0_2,2022-03-01T10:20:26.098Z,,,,0,V,207.08800000000338,response,,stim_detected,keydown(Space),76668.59999996424,76663.5,76439.745,76441.39999997616,76456.412,76673.083,,white
,Trial,flow.Sequence,3_26_0,2022-03-01T10:20:26.098Z,,,,0,V,2523.8010000000068,completion,,,,76668.89999997616,76663.5,74123.032,74129.69999998808,74139.699,76673.083,,white
,Frame,canvas.Frame,3_26,2022-03-01T10:20:26.098Z,,,,0,V,2529.3010000000068,,,,,76669.09999996424,76669,74123.032,74129,74139.699,76673.083,,white
,Fixation,canvas.Screen,3_27_0_0,2022-03-01T10:20:27.955Z,,,,1,A,1866.703999999998,timeout,,,,78525.5,78523.12,76656.416,76670.19999998808,76673.083,78539.787,,grey
,Stimulus,canvas.Screen,3_27_0_1,2022-03-01T10:20:28.055Z,,,,1,A,100.00200000000768,timeout,,,,78625.5,78623.122,78523.12,78525.79999995232,78539.787,78639.789,,grey
,Reaction,canvas.Screen,3_27_0_2,2022-03-01T10:20:28.404Z,,,,1,A,329.8109999642329,response,,stim_detected,keydown(Space),78974.19999998808,78969.59999996424,78623.122,78625.69999998808,78639.789,78989.796,,grey
,Trial,flow.Sequence,3_27_0,2022-03-01T10:20:28.404Z,,,,1,A,2296.5169999642385,completion,,,,78974.59999996424,78969.59999996424,76656.416,76670.09999996424,76673.083,78989.796,,grey
,Frame,canvas.Frame,3_27,2022-03-01T10:20:28.404Z,,,,1,A,2301.6169999880804,,,,,78974.79999995232,78974.69999998808,76656.416,76669.19999998808,76673.083,78989.796,,grey
,Fixation,canvas.Screen,3_28_0_0,2022-03-01T10:20:30.104Z,,,,1,VA,1700.0339999999997,timeout,,,,80674.79999995232,80673.163,78973.129,78975.89999997616,78989.796,80689.83,,white
,Stimulus,canvas.Screen,3_28_0_1,2022-03-01T10:20:30.205Z,,,,1,VA,100.00199999999313,timeout,,,,80775.5,80773.165,80673.163,80675.09999996424,80689.83,80789.832,,white
,Reaction,canvas.Screen,3_28_0_2,2022-03-01T10:20:31.704Z,,,,1,VA,1500.0299999999988,timeout,,,,82274.29999995232,82273.195,80773.165,80775.69999998808,80789.832,82289.862,,white
,Trial,flow.Sequence,3_28_0,2022-03-01T10:20:31.704Z,,,,1,VA,3283.399000000005,completion,,,,82274.5,82273.195,78973.129,78975.89999997616,78989.796,82289.862,,white
,Frame,canvas.Frame,3_28,2022-03-01T10:20:31.704Z,,,,1,VA,3284.703999999998,,,,,82274.5,82274.5,78973.129,78975,78989.796,82306.529,,white
,Fixation,canvas.Screen,3_29_0_0,2022-03-01T10:20:33.587Z,,,,0,V,1866.703999999998,timeout,,,,84157.69999998808,84156.566,82289.862,82275.19999998808,82306.529,84173.233,,white
,Stimulus,canvas.Screen,3_29_0_1,2022-03-01T10:20:33.688Z,,,,0,V,100.00200000000768,timeout,,,,84258.19999998808,84256.568,84156.566,84157.89999997616,84173.233,84273.235,,white
,Reaction,canvas.Screen,3_29_0_2,2022-03-01T10:20:35.188Z,,,,0,V,1500.0299999999988,timeout,,,,85758.39999997616,85756.598,84256.568,84258.39999997616,84273.235,85773.265,,white
,Trial,flow.Sequence,3_29_0,2022-03-01T10:20:35.188Z,,,,0,V,3450.069000000003,completion,,,,85758.59999996424,85756.598,82289.862,82275.09999996424,82306.529,85773.265,,white
,Frame,canvas.Frame,3_29,2022-03-01T10:20:35.188Z,,,,0,V,3452.170999988084,,,,,85758.79999995232,85758.69999998808,82289.862,82274.59999996424,82306.529,85789.932,,white
,Fixation,canvas.Screen,3_30_0_0,2022-03-01T10:20:37.539Z,,,,1,A,2333.3800000000047,timeout,,,,88109.39999997616,88106.645,85773.265,85760,85789.932,88123.312,,grey
,Stimulus,canvas.Screen,3_30_0_1,2022-03-01T10:20:37.639Z,,,,1,A,100.00199999999313,timeout,,,,88209.39999997616,88206.647,88106.645,88109.59999996424,88123.312,88223.314,,grey
,Reaction,canvas.Screen,3_30_0_2,2022-03-01T10:20:39.139Z,,,,1,A,1500.0299999999988,timeout,,,,89709,89706.677,88206.647,88209.59999996424,88223.314,89723.344,,grey
,Trial,flow.Sequence,3_30_0,2022-03-01T10:20:39.139Z,,,,1,A,3916.7449999999953,completion,,,,89709.29999995232,89706.677,85773.265,85759.89999997616,85789.932,89723.344,,grey
,Frame,canvas.Frame,3_30,2022-03-01T10:20:39.139Z,,,,1,A,3919.4679999761574,,,,,89709.59999996424,89709.39999997616,85773.265,85758.89999997616,85789.932,89740.011,,grey
,Fixation,canvas.Screen,3_31_0_0,2022-03-01T10:20:40.821Z,,,,1,VA,1666.699999999997,timeout,,,,91391.29999995232,91390.044,89723.344,89710.59999996424,89740.011,91406.711,,white
,Stimulus,canvas.Screen,3_31_0_1,2022-03-01T10:20:40.921Z,,,,1,VA,100.00200000000768,timeout,,,,91491.59999996424,91490.046,91390.044,91391.5,91406.711,91506.713,,white
,Reaction,canvas.Screen,3_31_0_2,2022-03-01T10:20:42.422Z,,,,1,VA,1500.0299999999988,timeout,,,,92992.79999995232,92990.076,91490.046,91491.79999995232,91506.713,93006.743,,white
,Trial,flow.Sequence,3_31_0,2022-03-01T10:20:42.423Z,,,,1,VA,3250.0650000000023,completion,,,,92993.09999996424,92990.076,89723.344,89710.5,89740.011,93006.743,,white
,Frame,canvas.Frame,3_31,2022-03-01T10:20:42.423Z,,,,1,VA,3253.1889999880805,,,,,92993.29999995232,92993.19999998808,89723.344,89709.69999998808,89740.011,93023.41,,white
,Fixation,canvas.Screen,3_32_0_0,2022-03-01T10:20:44.122Z,,,,1,VA,1683.3669999999984,timeout,,,,94692.39999997616,94690.11,93006.743,92994.29999995232,93023.41,94706.777,,white
,Stimulus,canvas.Screen,3_32_0_1,2022-03-01T10:20:44.223Z,,,,1,VA,100.00199999999313,timeout,,,,94792.79999995232,94790.112,94690.11,94692.69999998808,94706.777,94806.779,,white
,Reaction,canvas.Screen,3_32_0_2,2022-03-01T10:20:44.423Z,,,,1,VA,181.92099998808408,response,,stim_detected,keydown(Space),94993.5,94988.69999998808,94790.112,94793,94806.779,95006.783,,white
,Trial,flow.Sequence,3_32_0,2022-03-01T10:20:44.424Z,,,,1,VA,1965.2899999880756,completion,,,,94993.89999997616,94988.69999998808,93006.743,92994.19999998808,93023.41,95006.783,,white
,Frame,canvas.Frame,3_32,2022-03-01T10:20:44.424Z,,,,1,VA,1970.5899999999965,,,,,94994.09999996424,94994,93006.743,92993.39999997616,93023.41,95006.783,,white
,Fixation,canvas.Screen,3_33_0_0,2022-03-01T10:20:46.405Z,,,,1,VA,1983.3730000000069,timeout,,,,96975.19999998808,96973.489,94990.116,94995.29999995232,95006.783,96990.156,,white
,Stimulus,canvas.Screen,3_33_0_1,2022-03-01T10:20:46.505Z,,,,1,VA,100.00199999999313,timeout,,,,97074.89999997616,97073.491,96973.489,96975.5,96990.156,97090.158,,white
,Reaction,canvas.Screen,3_33_0_2,2022-03-01T10:20:46.719Z,,,,1,VA,193.24199997616233,response,,stim_detected,keydown(Space),97289.19999998808,97283.39999997616,97073.491,97075.09999996424,97090.158,97306.829,,white
,Trial,flow.Sequence,3_33_0,2022-03-01T10:20:46.719Z,,,,1,VA,2276.6169999761623,completion,,,,97289.5,97283.39999997616,94990.116,94995.19999998808,95006.783,97306.829,,white
,Frame,canvas.Frame,3_33,2022-03-01T10:20:46.719Z,,,,1,VA,2282.8169999642414,,,,,97289.69999998808,97289.59999996424,94990.116,94994.19999998808,95006.783,97306.829,,white
,Fixation,canvas.Screen,3_34_0_0,2022-03-01T10:20:48.605Z,,,,1,VA,1883.3709999999992,timeout,,,,99175.39999997616,99173.533,97290.162,97290.69999998808,97306.829,99190.2,,white
,Stimulus,canvas.Screen,3_34_0_1,2022-03-01T10:20:48.705Z,,,,1,VA,100.00200000000768,timeout,,,,99275.5,99273.535,99173.533,99175.59999996424,99190.2,99290.202,,white
,Reaction,canvas.Screen,3_34_0_2,2022-03-01T10:20:48.905Z,,,,1,VA,180.4979999880743,response,,stim_detected,keydown(Space),99475.09999996424,99470.69999998808,99273.535,99275.79999995232,99290.202,99490.206,,white
,Trial,flow.Sequence,3_34_0,2022-03-01T10:20:48.905Z,,,,1,VA,2163.870999988081,completion,,,,99475.39999997616,99470.69999998808,97290.162,97290.59999996424,97306.829,99490.206,,white
,Frame,canvas.Frame,3_34,2022-03-01T10:20:48.905Z,,,,1,VA,2168.7709999642393,,,,,99475.69999998808,99475.59999996424,97290.162,97289.79999995232,97306.829,99490.206,,white
,Fixation,canvas.Screen,3_35_0_0,2022-03-01T10:20:51.322Z,,,,1,A,2416.7149999999965,timeout,,,,101892.29999995232,101890.254,99473.539,99476.69999998808,99490.206,101906.921,,grey
,Stimulus,canvas.Screen,3_35_0_1,2022-03-01T10:20:51.465Z,,,,1,A,100.00199999999313,timeout,,,,102035.29999995232,101990.256,101890.254,101892.5,101906.921,102006.923,,grey
,Reaction,canvas.Screen,3_35_0_2,2022-03-01T10:20:51.663Z,,,,1,A,221.47699997616292,response,,stim_detected,keydown(Space),102232.69999998808,102228.39999997616,101990.256,102035.5,102006.923,102240.261,,grey
,Trial,flow.Sequence,3_35_0,2022-03-01T10:20:51.663Z,,,,1,A,2738.1939999761526,completion,,,,102232.89999997616,102228.39999997616,99473.539,99476.59999996424,99490.206,102240.261,,grey
,Frame,canvas.Frame,3_35,2022-03-01T10:20:51.663Z,,,,1,A,2742.8939999642316,,,,,102233.09999996424,102233.09999996424,99473.539,99475.69999998808,99490.206,102240.261,,grey
,Fixation,canvas.Screen,3_36_0_0,2022-03-01T10:20:53.956Z,,,,1,VA,2316.7130000000034,timeout,,,,104525.69999998808,104523.64,102223.594,102234.5,102240.261,104556.974,,white
,Stimulus,canvas.Screen,3_36_0_1,2022-03-01T10:20:54.072Z,,,,1,VA,100.00199999999313,timeout,,,,104642.5,104640.309,104523.64,104525.79999995232,104556.974,104656.976,,white
,Reaction,canvas.Screen,3_36_0_2,2022-03-01T10:20:54.304Z,,,,1,VA,214.1239999642421,response,,stim_detected,keydown(Space),104874.39999997616,104871.09999996424,104640.309,104642.89999997616,104656.976,104890.314,,white
,Trial,flow.Sequence,3_36_0,2022-03-01T10:20:54.305Z,,,,1,VA,2630.8389999642386,completion,,,,104875,104871.09999996424,102223.594,102234.39999997616,102240.261,104890.314,,white
,Frame,canvas.Frame,3_36,2022-03-01T10:20:54.305Z,,,,1,VA,2634.7390000000014,,,,,104875.09999996424,104875,102223.594,102233.29999995232,102240.261,104890.314,,white
,Fixation,canvas.Screen,3_37_0_0,2022-03-01T10:20:56.573Z,,,,0,V,2266.7119999999995,timeout,,,,107142.5,107140.359,104873.647,104875.79999995232,104890.314,107157.026,,white
,Stimulus,canvas.Screen,3_37_0_1,2022-03-01T10:20:56.672Z,,,,0,V,100.00200000000768,timeout,,,,107242.39999997616,107240.361,107140.359,107142.69999998808,107157.026,107257.028,,white
,Reaction,canvas.Screen,3_37_0_2,2022-03-01T10:20:56.966Z,,,,0,V,274.0719999642315,response,,stim_detected,keydown(Space),107535.5,107531.09999996424,107240.361,107242.69999998808,107257.028,107540.367,,white
,Trial,flow.Sequence,3_37_0,2022-03-01T10:20:56.966Z,,,,0,V,2640.7859999642387,completion,,,,107536,107531.09999996424,104873.647,104875.79999995232,104890.314,107540.367,,white
,Frame,canvas.Frame,3_37,2022-03-01T10:20:56.966Z,,,,0,V,2645.7859999642387,,,,,107536.19999998808,107536.09999996424,104873.647,104875.19999998808,104890.314,107540.367,,white
,Fixation,canvas.Screen,3_38_0_0,2022-03-01T10:20:58.940Z,,,,0,V,1983.3730000000069,timeout,,,,109509.69999998808,109507.073,107523.7,107537.29999995232,107540.367,109523.74,,white
,Stimulus,canvas.Screen,3_38_0_1,2022-03-01T10:20:59.039Z,,,,0,V,100.00199999999313,timeout,,,,109608.79999995232,109607.075,109507.073,109509.79999995232,109523.74,109623.742,,white
,Reaction,canvas.Screen,3_38_0_2,2022-03-01T10:20:59.305Z,,,,0,V,247.15799997615977,response,,stim_detected,keydown(Space),109875.39999997616,109870.89999997616,109607.075,109609,109623.742,109890.414,,white
,Trial,flow.Sequence,3_38_0,2022-03-01T10:20:59.306Z,,,,0,V,2330.5329999761598,completion,,,,109875.59999996424,109870.89999997616,107523.7,107537.19999998808,107540.367,109890.414,,white
,Frame,canvas.Frame,3_38,2022-03-01T10:20:59.306Z,,,,0,V,2335.3329999880807,,,,,109875.79999995232,109875.69999998808,107523.7,107536.29999995232,107540.367,109890.414,,white
,Fixation,canvas.Screen,3_39_0_0,2022-03-01T10:21:01.589Z,,,,1,A,2283.379000000001,timeout,,,,112159.09999996424,112157.126,109873.747,109876.89999997616,109890.414,112173.793,,grey
,Stimulus,canvas.Screen,3_39_0_1,2022-03-01T10:21:01.690Z,,,,1,A,100.00199999999313,timeout,,,,112259.79999995232,112257.128,112157.126,112159.29999995232,112173.793,112273.795,,grey
,Reaction,canvas.Screen,3_39_0_2,2022-03-01T10:21:02.001Z,,,,1,A,293.00499995231803,response,,stim_detected,keydown(Space),112571.19999998808,112566.79999995232,112257.128,112260.09999996424,112273.795,112573.801,,grey
,Trial,flow.Sequence,3_39_0,2022-03-01T10:21:02.002Z,,,,1,A,2676.385999952312,completion,,,,112571.39999997616,112566.79999995232,109873.747,109876.79999995232,109890.414,112573.801,,grey
,Frame,canvas.Frame,3_39,2022-03-01T10:21:02.002Z,,,,1,A,2681.0859999999957,,,,,112571.59999996424,112571.5,109873.747,109875.89999997616,109890.414,112573.801,,grey
,Fixation,canvas.Screen,3_40_0_0,2022-03-01T10:21:03.673Z,,,,1,VA,1683.3669999999984,timeout,,,,114242.69999998808,114240.501,112557.134,112572.79999995232,112573.801,114257.168,,white
,Stimulus,canvas.Screen,3_40_0_1,2022-03-01T10:21:03.774Z,,,,1,VA,100.00199999999313,timeout,,,,114343.39999997616,114340.503,114240.501,114242.89999997616,114257.168,114357.17,,white
,Reaction,canvas.Screen,3_40_0_2,2022-03-01T10:21:04.045Z,,,,1,VA,253.33000000000175,response,,stim_detected,keydown(Space),114614.79999995232,114610.5,114340.503,114343.59999996424,114357.17,114623.842,,white
,Trial,flow.Sequence,3_40_0,2022-03-01T10:21:04.045Z,,,,1,VA,2036.6989999999932,completion,,,,114615.09999996424,114610.5,112557.134,112572.79999995232,112573.801,114623.842,,white
,Frame,canvas.Frame,3_40,2022-03-01T10:21:04.045Z,,,,1,VA,2041.2989999642305,,,,,114615.29999995232,114615.09999996424,112557.134,112571.79999995232,112573.801,114623.842,,white
,Fixation,canvas.Screen,3_41_0_0,2022-03-01T10:21:06.189Z,,,,0,V,2150.0429999999906,timeout,,,,116758.89999997616,116757.218,114607.175,114616.5,114623.842,116773.885,,white
,Stimulus,canvas.Screen,3_41_0_1,2022-03-01T10:21:06.290Z,,,,0,V,100.00200000000768,timeout,,,,116860,116857.22,116757.218,116759,116773.885,116873.887,,white
,Reaction,canvas.Screen,3_41_0_2,2022-03-01T10:21:06.483Z,,,,0,V,173.71299996423477,response,,stim_detected,keydown(Space),117052.5,117047.59999996424,116857.22,116860.29999995232,116873.887,117057.224,,white
,Trial,flow.Sequence,3_41_0,2022-03-01T10:21:06.483Z,,,,0,V,2423.757999964233,completion,,,,117052.79999995232,117047.59999996424,114607.175,114616.39999997616,114623.842,117057.224,,white
,Frame,canvas.Frame,3_41,2022-03-01T10:21:06.483Z,,,,0,V,2428.957999952312,,,,,117053,117052.79999995232,114607.175,114615.39999997616,114623.842,117057.224,,white
,Fixation,canvas.Screen,3_42_0_0,2022-03-01T10:21:08.090Z,,,,1,A,1616.6989999999932,timeout,,,,118659.29999995232,118657.256,117040.557,117054,117057.224,118673.923,,grey
,Stimulus,canvas.Screen,3_42_0_1,2022-03-01T10:21:08.189Z,,,,1,A,100.00200000000768,timeout,,,,118758.89999997616,118757.258,118657.256,118659.39999997616,118673.923,118773.925,,grey
,Reaction,canvas.Screen,3_42_0_2,2022-03-01T10:21:08.494Z,,,,1,A,285.27499998807616,response,,stim_detected,keydown(Space),119063.89999997616,119059.19999998808,118757.258,118759,118773.925,119073.931,,grey
,Trial,flow.Sequence,3_42_0,2022-03-01T10:21:08.495Z,,,,1,A,2001.975999988077,completion,,,,119064.19999998808,119059.19999998808,117040.557,117054,117057.224,119073.931,,grey
,Frame,canvas.Frame,3_42,2022-03-01T10:21:08.495Z,,,,1,A,2006.975999988077,,,,,119064.39999997616,119064.19999998808,117040.557,117053.09999996424,117057.224,119073.931,,grey
,Fixation,canvas.Screen,3_43_0_0,2022-03-01T10:21:10.073Z,,,,1,A,1583.3650000000052,timeout,,,,120642.19999998808,120640.629,119057.264,119065.39999997616,119073.931,120657.296,,grey
,Stimulus,canvas.Screen,3_43_0_1,2022-03-01T10:21:10.174Z,,,,1,A,100.00199999999313,timeout,,,,120743.29999995232,120740.631,120640.629,120642.39999997616,120657.296,120757.298,,grey
,Reaction,canvas.Screen,3_43_0_2,2022-03-01T10:21:10.465Z,,,,1,A,273.1019999761629,response,,stim_detected,keydown(Space),121034.5,121030.39999997616,120740.631,120743.59999996424,120757.298,121040.637,,grey
,Trial,flow.Sequence,3_43_0,2022-03-01T10:21:10.465Z,,,,1,A,1956.4689999761613,completion,,,,121034.89999997616,121030.39999997616,119057.264,119065.39999997616,119073.931,121040.637,,grey
,Frame,canvas.Frame,3_43,2022-03-01T10:21:10.465Z,,,,1,A,1960.9689999761613,,,,,121035.09999996424,121034.89999997616,119057.264,119064.5,119073.931,121040.637,,grey
,Fixation,canvas.Screen,3_44_0_0,2022-03-01T10:21:12.957Z,,,,1,VA,2500.050000000003,timeout,,,,123526.19999998808,123524.02,121023.97,121036.29999995232,121040.637,123540.687,,white
,Stimulus,canvas.Screen,3_44_0_1,2022-03-01T10:21:13.057Z,,,,1,VA,100.00199999999313,timeout,,,,123626.19999998808,123624.022,123524.02,123526.69999998808,123540.687,123640.689,,white
,Reaction,canvas.Screen,3_44_0_2,2022-03-01T10:21:13.274Z,,,,1,VA,198.41099996423873,response,,stim_detected,keydown(Space),123843.79999995232,123839.09999996424,123624.022,123626.39999997616,123640.689,123857.36,,white
,Trial,flow.Sequence,3_44_0,2022-03-01T10:21:13.275Z,,,,1,VA,2798.4629999642348,completion,,,,123844.09999996424,123839.09999996424,121023.97,121036.09999996424,121040.637,123857.36,,white
,Frame,canvas.Frame,3_44,2022-03-01T10:21:13.275Z,,,,1,VA,2803.5629999880766,,,,,123844.29999995232,123844.19999998808,121023.97,121035.19999998808,121040.637,123857.36,,white
,Fixation,canvas.Screen,3_45_0_0,2022-03-01T10:21:14.940Z,,,,1,VA,1666.699999999997,timeout,,,,125509.39999997616,125507.393,123840.693,123845.29999995232,123857.36,125524.06,,white
,Stimulus,canvas.Screen,3_45_0_1,2022-03-01T10:21:15.039Z,,,,1,VA,100.00200000000768,timeout,,,,125608.89999997616,125607.395,125507.393,125509.69999998808,125524.06,125624.062,,white
,Reaction,canvas.Screen,3_45_0_2,2022-03-01T10:21:15.222Z,,,,1,VA,162.93799999999464,response,,stim_detected,keydown(Space),125791.59999996424,125787,125607.395,125609,125624.062,125807.399,,white
,Trial,flow.Sequence,3_45_0,2022-03-01T10:21:15.223Z,,,,1,VA,1929.6399999999994,completion,,,,125792.09999996424,125787,123840.693,123845.19999998808,123857.36,125807.399,,white
,Frame,canvas.Frame,3_45,2022-03-01T10:21:15.223Z,,,,1,VA,1934.7399999642366,,,,,125792.29999995232,125792.09999996424,123840.693,123844.39999997616,123857.36,125807.399,,white
,Fixation,canvas.Screen,3_46_0_0,2022-03-01T10:21:17.590Z,,,,1,A,2366.7139999999927,timeout,,,,128159.69999998808,128157.446,125790.732,125793.19999998808,125807.399,128174.113,,grey
,Stimulus,canvas.Screen,3_46_0_1,2022-03-01T10:21:17.689Z,,,,1,A,100.00200000000768,timeout,,,,128258.69999998808,128257.448,128157.446,128159.89999997616,128174.113,128274.115,,grey
,Reaction,canvas.Screen,3_46_0_2,2022-03-01T10:21:17.934Z,,,,1,A,223.7849999761529,response,,stim_detected,keydown(Space),128503.29999995232,128497.89999997616,128257.448,128258.79999995232,128274.115,128507.453,,grey
,Trial,flow.Sequence,3_46_0,2022-03-01T10:21:17.934Z,,,,1,A,2690.5009999761533,completion,,,,128503.69999998808,128497.89999997616,125790.732,125793.19999998808,125807.399,128507.453,,grey
,Frame,canvas.Frame,3_46,2022-03-01T10:21:17.935Z,,,,1,A,2696.4009999523114,,,,,128503.89999997616,128503.79999995232,125790.732,125792.39999997616,125807.399,128507.453,,grey
,Fixation,canvas.Screen,3_47_0_0,2022-03-01T10:21:20.074Z,,,,0,V,2150.043000000005,timeout,,,,130643.59999996424,130640.829,128490.786,128505,128507.453,130657.496,,white
,Stimulus,canvas.Screen,3_47_0_1,2022-03-01T10:21:20.174Z,,,,0,V,100.00200000000768,timeout,,,,130743.19999998808,130740.831,130640.829,130643.89999997616,130657.496,130757.498,,white
,Reaction,canvas.Screen,3_47_0_2,2022-03-01T10:21:20.399Z,,,,0,V,206.10199996423034,response,,stim_detected,keydown(Space),130967.89999997616,130963.59999996424,130740.831,130743.39999997616,130757.498,130974.169,,white
,Trial,flow.Sequence,3_47_0,2022-03-01T10:21:20.399Z,,,,0,V,2456.146999964243,completion,,,,130968.19999998808,130963.59999996424,128490.786,128504.89999997616,128507.453,130974.169,,white
,Frame,canvas.Frame,3_47,2022-03-01T10:21:20.399Z,,,,0,V,2460.846999952322,,,,,130968.59999996424,130968.29999995232,128490.786,128504,128507.453,130974.169,,white
,Fixation,canvas.Screen,3_48_0_0,2022-03-01T10:21:22.024Z,,,,1,VA,1633.366000000009,timeout,,,,132592.89999997616,132590.868,130957.502,130969.69999998808,130974.169,132607.535,,white
,Stimulus,canvas.Screen,3_48_0_1,2022-03-01T10:21:22.124Z,,,,1,VA,100.00200000000768,timeout,,,,132693.19999998808,132690.87,132590.868,132593,132607.535,132707.537,,white
,Reaction,canvas.Screen,3_48_0_2,2022-03-01T10:21:22.309Z,,,,1,VA,166.06299996422604,response,,stim_detected,keydown(Space),132878.59999996424,132873.59999996424,132690.87,132693.5,132707.537,132890.874,,white
,Trial,flow.Sequence,3_48_0,2022-03-01T10:21:22.310Z,,,,1,VA,1899.4309999642428,completion,,,,132878.89999997616,132873.59999996424,130957.502,130969.59999996424,130974.169,132890.874,,white
,Frame,canvas.Frame,3_48,2022-03-01T10:21:22.310Z,,,,1,VA,1904.8310000000056,,,,,132879.09999996424,132879,130957.502,130968.69999998808,130974.169,132890.874,,white
,Fixation,canvas.Screen,3_49_0_0,2022-03-01T10:21:24.074Z,,,,1,VA,1766.7019999999902,timeout,,,,134643.5,134640.909,132874.207,132880.19999998808,132890.874,134657.576,,white
,Stimulus,canvas.Screen,3_49_0_1,2022-03-01T10:21:24.173Z,,,,1,VA,100.00200000000768,timeout,,,,134742.59999996424,134740.911,134640.909,134643.69999998808,134657.576,134757.578,,white
,Reaction,canvas.Screen,3_49_0_2,2022-03-01T10:21:24.398Z,,,,1,VA,205.0219999642286,response,,stim_detected,keydown(Space),134966.79999995232,134962.59999996424,134740.911,134742.79999995232,134757.578,135007.583,,white
,Trial,flow.Sequence,3_49_0,2022-03-01T10:21:24.398Z,,,,1,VA,2071.7259999642265,completion,,,,134967.09999996424,134962.59999996424,132874.207,132880.09999996424,132890.874,135007.583,,white
,Frame,canvas.Frame,3_49,2022-03-01T10:21:24.398Z,,,,1,VA,2076.3259999880684,,,,,134967.29999995232,134967.19999998808,132874.207,132879.29999995232,132890.874,135007.583,,white
,Fixation,canvas.Screen,3_50_0_0,2022-03-01T10:21:26.475Z,,,,1,VA,2050.0409999999974,timeout,,,,137043.79999995232,137040.957,134957.582,134968.29999995232,135007.583,137057.624,,white
,Stimulus,canvas.Screen,3_50_0_1,2022-03-01T10:21:26.574Z,,,,1,VA,100.00199999997858,timeout,,,,137143.5,137140.959,137040.957,137044,137057.624,137157.626,,white
,Reaction,canvas.Screen,3_50_0_2,2022-03-01T10:21:26.746Z,,,,1,VA,152.673999952327,response,,stim_detected,keydown(Space),137314.69999998808,137310.29999995232,137140.959,137143.59999996424,137157.626,137324.296,,white
,Trial,flow.Sequence,3_50_0,2022-03-01T10:21:26.746Z,,,,1,VA,2302.716999952303,completion,,,,137315.09999996424,137310.29999995232,134957.582,134968.29999995232,135007.583,137324.296,,white
,Frame,canvas.Frame,3_50,2022-03-01T10:21:26.746Z,,,,1,VA,2307.516999964224,,,,,137315.29999995232,137315.09999996424,134957.582,134967.39999997616,135007.583,137324.296,,white
,Fixation,canvas.Screen,3_51_0_0,2022-03-01T10:21:28.858Z,,,,1,VA,2116.7090000000026,timeout,,,,139426.69999998808,139424.338,137307.629,137316.29999995232,137324.296,139441.005,,white
,Stimulus,canvas.Screen,3_51_0_1,2022-03-01T10:21:28.957Z,,,,1,VA,100.00200000000768,timeout,,,,139526,139524.34,139424.338,139427,139441.005,139541.007,,white
,Reaction,canvas.Screen,3_51_0_2,2022-03-01T10:21:29.148Z,,,,1,VA,171.29299995230394,response,,stim_detected,keydown(Space),139716.89999997616,139712.29999995232,139524.34,139526.09999996424,139541.007,139724.344,,white
,Trial,flow.Sequence,3_51_0,2022-03-01T10:21:29.148Z,,,,1,VA,2388.003999952314,completion,,,,139717.19999998808,139712.29999995232,137307.629,137316.19999998808,137324.296,139724.344,,white
,Frame,canvas.Frame,3_51,2022-03-01T10:21:29.148Z,,,,1,VA,2392.903999988077,,,,,139717.29999995232,139717.19999998808,137307.629,137315.29999995232,137324.296,139724.344,,white
,Fixation,canvas.Screen,3_52_0_0,2022-03-01T10:21:31.474Z,,,,0,V,2333.3799999999756,timeout,,,,142043.39999997616,142041.057,139707.677,139718.39999997616,139724.344,142057.724,,white
,Stimulus,canvas.Screen,3_52_0_1,2022-03-01T10:21:31.575Z,,,,0,V,100.00200000000768,timeout,,,,142143.79999995232,142141.059,142041.057,142043.59999996424,142057.724,142157.726,,white
,Reaction,canvas.Screen,3_52_0_2,2022-03-01T10:21:31.819Z,,,,0,V,225.47399998808396,response,,stim_detected,keydown(Space),142388,142383.19999998808,142141.059,142144.09999996424,142157.726,142407.731,,white
,Trial,flow.Sequence,3_52_0,2022-03-01T10:21:31.819Z,,,,0,V,2658.855999988067,completion,,,,142388.29999995232,142383.19999998808,139707.677,139718.29999995232,139724.344,142407.731,,white
,Frame,canvas.Frame,3_52,2022-03-01T10:21:31.820Z,,,,0,V,2664.155999999988,,,,,142388.59999996424,142388.5,139707.677,139717.5,139724.344,142407.731,,white
,Fixation,canvas.Screen,3_53_0_0,2022-03-01T10:21:33.891Z,,,,1,VA,2066.7080000000133,timeout,,,,144460.09999996424,144457.772,142391.064,142389.69999998808,142407.731,144474.439,,white
,Stimulus,canvas.Screen,3_53_0_1,2022-03-01T10:21:33.990Z,,,,1,VA,100.00199999997858,timeout,,,,144558.89999997616,144557.774,144457.772,144460.19999998808,144474.439,144574.441,,white
,Reaction,canvas.Screen,3_53_0_2,2022-03-01T10:21:34.176Z,,,,1,VA,165.6589999642456,response,,stim_detected,keydown(Space),144744.69999998808,144740.09999996424,144557.774,144559,144574.441,144757.778,,white
,Trial,flow.Sequence,3_53_0,2022-03-01T10:21:34.176Z,,,,1,VA,2332.3689999642374,completion,,,,144745,144740.09999996424,142391.064,142389.59999996424,142407.731,144757.778,,white
,Frame,canvas.Frame,3_53,2022-03-01T10:21:34.176Z,,,,1,VA,2337.2690000000002,,,,,144745.19999998808,144745,142391.064,142388.69999998808,142407.731,144757.778,,white
,Fixation,canvas.Screen,3_54_0_0,2022-03-01T10:21:36.258Z,,,,1,VA,2083.375,timeout,,,,146826.59999996424,146824.486,144741.111,144746.09999996424,144757.778,146841.153,,white
,Stimulus,canvas.Screen,3_54_0_1,2022-03-01T10:21:36.358Z,,,,1,VA,100.00200000000768,timeout,,,,146927,146924.488,146824.486,146826.79999995232,146841.153,146941.155,,white
,Reaction,canvas.Screen,3_54_0_2,2022-03-01T10:21:36.550Z,,,,1,VA,173.7449999761593,response,,stim_detected,keydown(Space),147119.39999997616,147114.89999997616,146924.488,146927.29999995232,146941.155,147124.492,,white
,Trial,flow.Sequence,3_54_0,2022-03-01T10:21:36.551Z,,,,1,VA,2357.121999976167,completion,,,,147119.59999996424,147114.89999997616,144741.111,144746.09999996424,144757.778,147124.492,,white
,Frame,canvas.Frame,3_54,2022-03-01T10:21:36.551Z,,,,1,VA,2361.921999988088,,,,,147119.79999995232,147119.69999998808,144741.111,144745.19999998808,144757.778,147124.492,,white
,Fixation,canvas.Screen,3_55_0_0,2022-03-01T10:21:38.892Z,,,,1,VA,2350.0469999999914,timeout,,,,149460.29999995232,149457.872,147107.825,147120.79999995232,147124.492,149474.539,,white
,Stimulus,canvas.Screen,3_55_0_1,2022-03-01T10:21:38.992Z,,,,1,VA,100.00200000000768,timeout,,,,149560.29999995232,149557.874,149457.872,149460.59999996424,149474.539,149574.541,,white
,Reaction,canvas.Screen,3_55_0_2,2022-03-01T10:21:39.160Z,,,,1,VA,149.25899995231885,response,,stim_detected,keydown(Space),149728.5,149723.79999995232,149557.874,149560.5,149574.541,149741.211,,white
,Trial,flow.Sequence,3_55_0,2022-03-01T10:21:39.160Z,,,,1,VA,2599.307999952318,completion,,,,149729,149723.79999995232,147107.825,147120.79999995232,147124.492,149741.211,,white
,Frame,canvas.Frame,3_55,2022-03-01T10:21:39.161Z,,,,1,VA,2604.7079999880807,,,,,149729.39999997616,149729.19999998808,147107.825,147119.89999997616,147124.492,149741.211,,white
,Fixation,canvas.Screen,3_56_0_0,2022-03-01T10:21:40.658Z,,,,1,VA,1500.0299999999988,timeout,,,,151226.59999996424,151224.574,149724.544,149730.69999998808,149741.211,151241.241,,white
,Stimulus,canvas.Screen,3_56_0_1,2022-03-01T10:21:40.758Z,,,,1,VA,100.00199999997858,timeout,,,,151327.09999996424,151324.576,151224.574,151226.79999995232,151241.241,151341.243,,white
,Reaction,canvas.Screen,3_56_0_2,2022-03-01T10:21:40.940Z,,,,1,VA,162.4569999880914,response,,stim_detected,keydown(Space),151508.29999995232,151503.69999998808,151324.576,151327.19999998808,151341.243,151524.58,,white
,Trial,flow.Sequence,3_56_0,2022-03-01T10:21:40.940Z,,,,1,VA,1762.4889999880688,completion,,,,151508.5,151503.69999998808,149724.544,149730.5,149741.211,151524.58,,white
,Frame,canvas.Frame,3_56,2022-03-01T10:21:40.940Z,,,,1,VA,1767.388999964227,,,,,151508.79999995232,151508.59999996424,149724.544,149729.5,149741.211,151524.58,,white
,Fixation,canvas.Screen,3_57_0_0,2022-03-01T10:21:43.175Z,,,,1,VA,2233.378000000026,timeout,,,,153743.79999995232,153741.291,151507.913,151509.69999998808,151524.58,153757.958,,white
,Stimulus,canvas.Screen,3_57_0_1,2022-03-01T10:21:43.275Z,,,,1,VA,100.00199999997858,timeout,,,,153843.89999997616,153841.293,153741.291,153744,153757.958,153857.96,,white
,Reaction,canvas.Screen,3_57_0_2,2022-03-01T10:21:43.466Z,,,,1,VA,172.54000000000815,response,,stim_detected,keydown(Space),154034.89999997616,154030.5,153841.293,153844.09999996424,153857.96,154041.297,,white
,Trial,flow.Sequence,3_57_0,2022-03-01T10:21:43.466Z,,,,1,VA,2505.920000000013,completion,,,,154035.19999998808,154030.5,151507.913,151509.69999998808,151524.58,154041.297,,white
,Frame,canvas.Frame,3_57,2022-03-01T10:21:43.467Z,,,,1,VA,2510.619999988092,,,,,154035.29999995232,154035.19999998808,151507.913,151508.89999997616,151524.58,154041.297,,white
,Fixation,canvas.Screen,3_58_0_0,2022-03-01T10:21:45.208Z,,,,1,A,1750.0350000000035,timeout,,,,155777.09999996424,155774.665,154024.63,154036.29999995232,154041.297,155791.332,,grey
,Stimulus,canvas.Screen,3_58_0_1,2022-03-01T10:21:45.308Z,,,,1,A,100.00200000000768,timeout,,,,155876.89999997616,155874.667,155774.665,155777.29999995232,155791.332,155891.334,,grey
,Reaction,canvas.Screen,3_58_0_2,2022-03-01T10:21:45.578Z,,,,1,A,251.16599999999744,response,,stim_detected,keydown(Space),156146.79999995232,156142.5,155874.667,155877.09999996424,155891.334,156158.006,,grey
,Trial,flow.Sequence,3_58_0,2022-03-01T10:21:45.578Z,,,,1,A,2101.2030000000086,completion,,,,156147.19999998808,156142.5,154024.63,154036.29999995232,154041.297,156158.006,,grey
,Frame,canvas.Frame,3_58,2022-03-01T10:21:45.579Z,,,,1,A,2105.9029999880877,,,,,156147.29999995232,156147.19999998808,154024.63,154035.5,154041.297,156158.006,,grey
,Fixation,canvas.Screen,3_59_0_0,2022-03-01T10:21:47.142Z,,,,1,VA,1566.698000000004,timeout,,,,157710.09999996424,157708.037,156141.339,156148.39999997616,156158.006,157724.704,,white
,Stimulus,canvas.Screen,3_59_0_1,2022-03-01T10:21:47.241Z,,,,1,VA,100.00200000000768,timeout,,,,157810,157808.039,157708.037,157710.39999997616,157724.704,157824.706,,white
,Reaction,canvas.Screen,3_59_0_2,2022-03-01T10:21:47.411Z,,,,1,VA,150.5939999523107,response,,stim_detected,keydown(Space),157980,157975.29999995232,157808.039,157810.29999995232,157824.706,157991.376,,white
,Trial,flow.Sequence,3_59_0,2022-03-01T10:21:47.412Z,,,,1,VA,1817.2939999523223,completion,,,,157980.39999997616,157975.29999995232,156141.339,156148.29999995232,156158.006,157991.376,,white
,Frame,canvas.Frame,3_59,2022-03-01T10:21:47.412Z,,,,1,VA,1822.3939999761642,,,,,157980.5,157980.39999997616,156141.339,156147.39999997616,156158.006,157991.376,,white
,Fixation,canvas.Screen,3_60_0_0,2022-03-01T10:21:49.725Z,,,,1,A,2316.713000000018,timeout,,,,160293.79999995232,160291.422,157974.709,157981.59999996424,157991.376,160308.089,,grey
,Stimulus,canvas.Screen,3_60_0_1,2022-03-01T10:21:49.827Z,,,,1,A,100.00199999997858,timeout,,,,160395.29999995232,160391.424,160291.422,160294.09999996424,160308.089,160408.091,,grey
,Reaction,canvas.Screen,3_60_0_2,2022-03-01T10:21:50.081Z,,,,1,A,236.9090000000142,response,,stim_detected,keydown(Space),160649.79999995232,160645,160391.424,160395.5,160408.091,160658.096,,grey
,Trial,flow.Sequence,3_60_0,2022-03-01T10:21:50.082Z,,,,1,A,2653.6240000000107,completion,,,,160650.19999998808,160645,157974.709,157981.5,157991.376,160658.096,,grey
,Frame,canvas.Frame,3_60,2022-03-01T10:21:50.082Z,,,,1,A,2658.923999952327,,,,,160650.39999997616,160650.29999995232,157974.709,157980.69999998808,157991.376,160658.096,,grey
,Fixation,canvas.Screen,3_61_0_0,2022-03-01T10:21:51.692Z,,,,1,A,1616.6990000000224,timeout,,,,162260.39999997616,162258.128,160641.429,160651.39999997616,160658.096,162274.795,,grey
,Stimulus,canvas.Screen,3_61_0_1,2022-03-01T10:21:51.792Z,,,,1,A,100.00199999997858,timeout,,,,162360.59999996424,162358.13,162258.128,162260.69999998808,162274.795,162374.797,,grey
,Reaction,canvas.Screen,3_61_0_2,2022-03-01T10:21:52.012Z,,,,1,A,201.20300000000861,response,,stim_detected,keydown(Space),162580.59999996424,162576,162358.13,162360.89999997616,162374.797,162591.468,,grey
,Trial,flow.Sequence,3_61_0,2022-03-01T10:21:52.012Z,,,,1,A,1917.9040000000095,completion,,,,162580.89999997616,162576,160641.429,160651.39999997616,160658.096,162591.468,,grey
,Frame,canvas.Frame,3_61,2022-03-01T10:21:52.013Z,,,,1,A,1922.8039999761677,,,,,162581.09999996424,162580.89999997616,160641.429,160650.39999997616,160658.096,162591.468,,grey
,Fixation,canvas.Screen,3_62_0_0,2022-03-01T10:21:54.325Z,,,,1,VA,2316.713000000018,timeout,,,,164893.79999995232,164891.514,162574.801,162582.09999996424,162591.468,164908.181,,white
,Stimulus,canvas.Screen,3_62_0_1,2022-03-01T10:21:54.425Z,,,,1,VA,100.00199999997858,timeout,,,,164993.69999998808,164991.516,164891.514,164893.89999997616,164908.181,165008.183,,white
,Reaction,canvas.Screen,3_62_0_2,2022-03-01T10:21:54.613Z,,,,1,VA,168.6169999523263,response,,stim_detected,keydown(Space),165181.59999996424,165176.79999995232,164991.516,164993.89999997616,165008.183,165191.52,,white
,Trial,flow.Sequence,3_62_0,2022-03-01T10:21:54.613Z,,,,1,VA,2585.331999952323,completion,,,,165181.89999997616,165176.79999995232,162574.801,162582,162591.468,165191.52,,white
,Frame,canvas.Frame,3_62,2022-03-01T10:21:54.614Z,,,,1,VA,2590.4319999761647,,,,,165182,165181.89999997616,162574.801,162581.19999998808,162591.468,165191.52,,white
,Fixation,canvas.Screen,3_63_0_0,2022-03-01T10:21:56.742Z,,,,1,VA,2133.3760000000184,timeout,,,,167310.5,167308.229,165174.853,165183.29999995232,165191.52,167324.896,,white
,Stimulus,canvas.Screen,3_63_0_1,2022-03-01T10:21:56.842Z,,,,1,VA,100.00199999997858,timeout,,,,167410.39999997616,167408.231,167308.229,167310.59999996424,167324.896,167424.898,,white
,Reaction,canvas.Screen,3_63_0_2,2022-03-01T10:21:57.046Z,,,,1,VA,185.70199996425072,response,,stim_detected,keydown(Space),167614.79999995232,167610.59999996424,167408.231,167410.5,167424.898,167624.902,,white
,Trial,flow.Sequence,3_63_0,2022-03-01T10:21:57.047Z,,,,1,VA,2419.0799999642477,completion,,,,167615.09999996424,167610.59999996424,165174.853,165183.09999996424,165191.52,167624.902,,white
,Frame,canvas.Frame,3_63,2022-03-01T10:21:57.047Z,,,,1,VA,2423.7799999523268,,,,,167615.59999996424,167615.29999995232,165174.853,165182.09999996424,165191.52,167624.902,,white
,Fixation,canvas.Screen,3_64_0_0,2022-03-01T10:21:58.893Z,,,,1,A,1850.0370000000112,timeout,,,,169461.09999996424,169458.272,167608.235,167616.59999996424,167624.902,169474.939,,grey
,Stimulus,canvas.Screen,3_64_0_1,2022-03-01T10:21:58.992Z,,,,1,A,100.00199999997858,timeout,,,,169560.5,169558.274,169458.272,169461.39999997616,169474.939,169574.941,,grey
,Reaction,canvas.Screen,3_64_0_2,2022-03-01T10:21:59.213Z,,,,1,A,201.75899998808745,response,,stim_detected,keydown(Space),169781.29999995232,169776.69999998808,169558.274,169560.69999998808,169574.941,169791.612,,grey
,Trial,flow.Sequence,3_64_0,2022-03-01T10:21:59.213Z,,,,1,A,2151.797999988077,completion,,,,169781.69999998808,169776.69999998808,167608.235,167616.59999996424,167624.902,169791.612,,grey
,Frame,canvas.Frame,3_64,2022-03-01T10:21:59.214Z,,,,1,A,2156.8979999523144,,,,,169782,169781.79999995232,167608.235,167615.69999998808,167624.902,169791.612,,grey
,Fixation,canvas.Screen,3_65_0_0,2022-03-01T10:22:01.409Z,,,,0,V,2200.0439999999944,timeout,,,,171977.09999996424,171974.989,169774.945,169783,169791.612,171991.656,,white
,Stimulus,canvas.Screen,3_65_0_1,2022-03-01T10:22:01.509Z,,,,0,V,100.00200000000768,timeout,,,,172076.69999998808,172074.991,171974.989,171977.29999995232,171991.656,172091.658,,white
,Reaction,canvas.Screen,3_65_0_2,2022-03-01T10:22:01.765Z,,,,0,V,235.8420000000042,response,,stim_detected,keydown(Space),172333.09999996424,172327.5,172074.991,172076.89999997616,172091.658,172341.663,,white
,Trial,flow.Sequence,3_65_0,2022-03-01T10:22:01.765Z,,,,0,V,2535.8880000000063,completion,,,,172333.39999997616,172327.5,169774.945,169782.89999997616,169791.612,172341.663,,white
,Frame,canvas.Frame,3_65,2022-03-01T10:22:01.765Z,,,,0,V,2541.7879999761644,,,,,172333.5,172333.39999997616,169774.945,169782,169791.612,172341.663,,white
,Fixation,canvas.Screen,3_66_0_0,2022-03-01T10:22:03.276Z,,,,1,VA,1516.6969999999856,timeout,,,,173844.09999996424,173841.693,172324.996,172334.69999998808,172341.663,173858.36,,white
,Stimulus,canvas.Screen,3_66_0_1,2022-03-01T10:22:03.375Z,,,,1,VA,100.00200000000768,timeout,,,,173943.59999996424,173941.695,173841.693,173844.39999997616,173858.36,173958.362,,white
,Reaction,canvas.Screen,3_66_0_2,2022-03-01T10:22:03.622Z,,,,1,VA,227.03799997616443,response,,stim_detected,keydown(Space),174190,174185.39999997616,173941.695,173943.79999995232,173958.362,174191.7,,white
,Trial,flow.Sequence,3_66_0,2022-03-01T10:22:03.622Z,,,,1,VA,1843.7369999761577,completion,,,,174190.39999997616,174185.39999997616,172324.996,172334.59999996424,172341.663,174191.7,,white
,Frame,canvas.Frame,3_66,2022-03-01T10:22:03.622Z,,,,1,VA,1848.7369999761577,,,,,174190.5,174190.39999997616,172324.996,172333.69999998808,172341.663,174191.7,,white
,Fixation,canvas.Screen,3_67_0_0,2022-03-01T10:22:05.960Z,,,,1,VA,2350.0469999999914,timeout,,,,176527.89999997616,176525.08,174175.033,174191.59999996424,174191.7,176541.747,,white
,Stimulus,canvas.Screen,3_67_0_1,2022-03-01T10:22:06.059Z,,,,1,VA,100.00200000000768,timeout,,,,176627.19999998808,176625.082,176525.08,176528.19999998808,176541.747,176641.749,,white
,Reaction,canvas.Screen,3_67_0_2,2022-03-01T10:22:06.297Z,,,,1,VA,218.55099995230557,response,,stim_detected,keydown(Space),176864.79999995232,176860.29999995232,176625.082,176627.39999997616,176641.749,176875.087,,white
,Trial,flow.Sequence,3_67_0,2022-03-01T10:22:06.297Z,,,,1,VA,2668.5999999523046,completion,,,,176865.09999996424,176860.29999995232,174175.033,174191.39999997616,174191.7,176875.087,,white
,Frame,canvas.Frame,3_67,2022-03-01T10:22:06.297Z,,,,1,VA,2673.4999999880674,,,,,176865.29999995232,176865.19999998808,174175.033,174190.69999998808,174191.7,176875.087,,white
,Fixation,canvas.Screen,3_68_0_0,2022-03-01T10:22:08.193Z,,,,1,A,1900.0380000000005,timeout,,,,178761,178758.458,176858.42,176866.39999997616,176875.087,178775.125,,grey
,Stimulus,canvas.Screen,3_68_0_1,2022-03-01T10:22:08.292Z,,,,1,A,100.00200000000768,timeout,,,,178860.29999995232,178858.46,178758.458,178761.19999998808,178775.125,178875.127,,grey
,Reaction,canvas.Screen,3_68_0_2,2022-03-01T10:22:08.572Z,,,,1,A,259.97299996422953,response,,stim_detected,keydown(Space),179139.59999996424,179135.09999996424,178858.46,178860.5,178875.127,179141.799,,grey
,Trial,flow.Sequence,3_68_0,2022-03-01T10:22:08.572Z,,,,1,A,2260.0129999642377,completion,,,,179139.89999997616,179135.09999996424,176858.42,176866.29999995232,176875.087,179141.799,,grey
,Frame,canvas.Frame,3_68,2022-03-01T10:22:08.572Z,,,,1,A,2264.8129999761586,,,,,179140.09999996424,179139.89999997616,176858.42,176865.39999997616,176875.087,179141.799,,grey
,Fixation,canvas.Screen,3_69_0_0,2022-03-01T10:22:10.276Z,,,,0,V,1716.701000000001,timeout,,,,180843.89999997616,180841.833,179125.132,179141.09999996424,179141.799,180858.5,,white
,Stimulus,canvas.Screen,3_69_0_1,2022-03-01T10:22:10.376Z,,,,0,V,100.00200000000768,timeout,,,,180944,180941.835,180841.833,180844.09999996424,180858.5,180958.502,,white
,Reaction,canvas.Screen,3_69_0_2,2022-03-01T10:22:10.624Z,,,,0,V,229.39799997615046,response,,stim_detected,keydown(Space),181192.29999995232,181187.89999997616,180941.835,180944.19999998808,180958.502,181208.507,,white
,Trial,flow.Sequence,3_69_0,2022-03-01T10:22:10.625Z,,,,0,V,2046.100999976159,completion,,,,181192.59999996424,181187.89999997616,179125.132,179141,179141.799,181208.507,,white
,Frame,canvas.Frame,3_69,2022-03-01T10:22:10.625Z,,,,0,V,2050.800999964238,,,,,181192.69999998808,181192.59999996424,179125.132,179140.19999998808,179141.799,181208.507,,white
,Fixation,canvas.Screen,3_70_0_0,2022-03-01T10:22:12.646Z,,,,0,V,2016.7069999999949,timeout,,,,183213.89999997616,183208.547,181191.84,181194,181208.507,183225.214,,white
,Stimulus,canvas.Screen,3_70_0_1,2022-03-01T10:22:12.745Z,,,,0,V,100.00199999997858,timeout,,,,183313.19999998808,183308.549,183208.547,183214.09999996424,183225.214,183325.216,,white
,Reaction,canvas.Screen,3_70_0_2,2022-03-01T10:22:12.940Z,,,,0,V,177.68399997617234,response,,stim_detected,keydown(Space),183508.09999996424,183502.89999997616,183308.549,183313.39999997616,183325.216,183525.22,,white
,Trial,flow.Sequence,3_70_0,2022-03-01T10:22:12.940Z,,,,0,V,2294.392999976146,completion,,,,183508.39999997616,183502.89999997616,181191.84,181193.89999997616,181208.507,183525.22,,white
,Frame,canvas.Frame,3_70,2022-03-01T10:22:12.941Z,,,,0,V,2299.892999976146,,,,,183508.59999996424,183508.39999997616,181191.84,181192.79999995232,181208.507,183525.22,,white
,Fixation,canvas.Screen,3_71_0_0,2022-03-01T10:22:14.793Z,,,,1,VA,1850.0370000000112,timeout,,,,185360.79999995232,185358.59,183508.553,183510.19999998808,183525.22,185375.257,,white
,Stimulus,canvas.Screen,3_71_0_1,2022-03-01T10:22:14.893Z,,,,1,VA,100.00199999997858,timeout,,,,185460.69999998808,185458.592,185358.59,185361.09999996424,185375.257,185475.259,,white
,Reaction,canvas.Screen,3_71_0_2,2022-03-01T10:22:15.104Z,,,,1,VA,192.64099997616722,response,,stim_detected,keydown(Space),185672.19999998808,185667.89999997616,185458.592,185460.89999997616,185475.259,185708.597,,white
,Trial,flow.Sequence,3_71_0,2022-03-01T10:22:15.106Z,,,,1,VA,2142.679999976157,completion,,,,185673.59999996424,185667.89999997616,183508.553,183510.09999996424,183525.22,185708.597,,white
,Frame,canvas.Frame,3_71,2022-03-01T10:22:15.106Z,,,,1,VA,2148.379999964236,,,,,185673.89999997616,185673.59999996424,183508.553,183508.69999998808,183525.22,185708.597,,white
,Fixation,canvas.Screen,3_72_0_0,2022-03-01T10:22:17.443Z,,,,1,VA,2316.712999999989,timeout,,,,188011.19999998808,188008.643,185691.93,185675.29999995232,185708.597,188025.31,,white
,Stimulus,canvas.Screen,3_72_0_1,2022-03-01T10:22:17.543Z,,,,1,VA,100.00200000000768,timeout,,,,188111.19999998808,188108.645,188008.643,188011.39999997616,188025.31,188125.312,,white
,Reaction,canvas.Screen,3_72_0_2,2022-03-01T10:22:17.706Z,,,,1,VA,143.38799998807372,response,,stim_detected,keydown(Space),188273.29999995232,188268.69999998808,188108.645,188111.39999997616,188125.312,188275.315,,white
,Trial,flow.Sequence,3_72_0,2022-03-01T10:22:17.706Z,,,,1,VA,2560.10299998807,completion,,,,188273.59999996424,188268.69999998808,185691.93,185675.29999995232,185708.597,188275.315,,white
,Frame,canvas.Frame,3_72,2022-03-01T10:22:17.706Z,,,,1,VA,2565.10299998807,,,,,188273.79999995232,188273.69999998808,185691.93,185673.89999997616,185708.597,188275.315,,white
,Fixation,canvas.Screen,3_73_0_0,2022-03-01T10:22:19.576Z,,,,1,A,1883.3709999999846,timeout,,,,190143.5,190142.019,188258.648,188274.89999997616,188275.315,190158.686,,grey
,Stimulus,canvas.Screen,3_73_0_1,2022-03-01T10:22:19.676Z,,,,1,A,100.00200000000768,timeout,,,,190244,190242.021,190142.019,190143.69999998808,190158.686,190258.688,,grey
,Reaction,canvas.Screen,3_73_0_2,2022-03-01T10:22:19.895Z,,,,1,A,199.81200000000536,response,,stim_detected,keydown(Space),190462.69999998808,190458.5,190242.021,190244.29999995232,190258.688,190475.359,,grey
,Trial,flow.Sequence,3_73_0,2022-03-01T10:22:19.895Z,,,,1,A,2183.1849999999977,completion,,,,190462.89999997616,190458.5,188258.648,188274.79999995232,188275.315,190475.359,,grey
,Frame,canvas.Frame,3_73,2022-03-01T10:22:19.895Z,,,,1,A,2187.6849999999977,,,,,190463.19999998808,190463,188258.648,188273.89999997616,188275.315,190475.359,,grey
,Fixation,canvas.Screen,3_74_0_0,2022-03-01T10:22:21.677Z,,,,1,VA,1783.369000000006,timeout,,,,192244.19999998808,192242.061,190458.692,190464.19999998808,190475.359,192258.728,,white
,Stimulus,canvas.Screen,3_74_0_1,2022-03-01T10:22:21.799Z,,,,1,VA,100.00200000000768,timeout,,,,192366.79999995232,192342.063,192242.061,192244.5,192258.728,192358.73,,white
,Reaction,canvas.Screen,3_74_0_2,2022-03-01T10:22:21.981Z,,,,1,VA,185.66999997614766,response,,stim_detected,keydown(Space),192549,192544.39999997616,192342.063,192367,192358.73,192558.734,,white
,Trial,flow.Sequence,3_74_0,2022-03-01T10:22:21.982Z,,,,1,VA,2069.0409999761614,completion,,,,192549.29999995232,192544.39999997616,190458.692,190464.09999996424,190475.359,192558.734,,white
,Frame,canvas.Frame,3_74,2022-03-01T10:22:21.982Z,,,,1,VA,2074.0409999761614,,,,,192549.5,192549.39999997616,190458.692,190463.19999998808,190475.359,192558.734,,white
,Fixation,canvas.Screen,3_75_0_0,2022-03-01T10:22:24.460Z,,,,1,A,2483.3830000000016,timeout,,,,195027.69999998808,195025.45,192542.067,192550.59999996424,192558.734,195042.117,,grey
,Stimulus,canvas.Screen,3_75_0_1,2022-03-01T10:22:24.561Z,,,,1,A,100.00200000000768,timeout,,,,195128.09999996424,195125.452,195025.45,195027.89999997616,195042.117,195142.119,,grey
,Reaction,canvas.Screen,3_75_0_2,2022-03-01T10:22:24.839Z,,,,1,A,260.18099995231023,response,,stim_detected,keydown(Space),195407,195402.29999995232,195125.452,195128.39999997616,195142.119,195408.791,,grey
,Trial,flow.Sequence,3_75_0,2022-03-01T10:22:24.840Z,,,,1,A,2843.5659999523195,completion,,,,195407.29999995232,195402.29999995232,192542.067,192550.5,192558.734,195408.791,,grey
,Frame,canvas.Frame,3_75,2022-03-01T10:22:24.840Z,,,,1,A,2848.6659999761614,,,,,195407.5,195407.39999997616,192542.067,192549.69999998808,192558.734,195408.791,,grey
,Fixation,canvas.Screen,3_76_0_0,2022-03-01T10:22:26.460Z,,,,0,V,1633.366000000009,timeout,,,,197027.5,197025.49,195392.124,195408.39999997616,195408.791,197042.157,,white
,Stimulus,canvas.Screen,3_76_0_1,2022-03-01T10:22:26.561Z,,,,0,V,100.00200000000768,timeout,,,,197128.09999996424,197125.492,197025.49,197027.69999998808,197042.157,197142.159,,white
,Reaction,canvas.Screen,3_76_0_2,2022-03-01T10:22:26.873Z,,,,0,V,294.04099998806487,response,,stim_detected,keydown(Space),197440.69999998808,197436.19999998808,197125.492,197128.19999998808,197142.159,197442.165,,white
,Trial,flow.Sequence,3_76_0,2022-03-01T10:22:26.873Z,,,,0,V,2027.4089999880816,completion,,,,197440.89999997616,197436.19999998808,195392.124,195408.29999995232,195408.791,197442.165,,white
,Frame,canvas.Frame,3_76,2022-03-01T10:22:26.874Z,,,,0,V,2032.2090000000026,,,,,197441.19999998808,197441,195392.124,195407.5,195408.791,197442.165,,white
,Fixation,canvas.Screen,3_77_0_0,2022-03-01T10:22:28.660Z,,,,0,V,1800.0359999999928,timeout,,,,199227.89999997616,199225.534,197425.498,197442.29999995232,197442.165,199242.201,,white
,Stimulus,canvas.Screen,3_77_0_1,2022-03-01T10:22:28.761Z,,,,0,V,100.00200000000768,timeout,,,,199328.29999995232,199325.536,199225.534,199228.19999998808,199242.201,199342.203,,white
,Reaction,canvas.Screen,3_77_0_2,2022-03-01T10:22:29.038Z,,,,0,V,258.8969999642286,response,,stim_detected,keydown(Space),199605.39999997616,199601.09999996424,199325.536,199328.39999997616,199342.203,199608.875,,white
,Trial,flow.Sequence,3_77_0,2022-03-01T10:22:29.038Z,,,,0,V,2158.934999964229,completion,,,,199605.69999998808,199601.09999996424,197425.498,197442.19999998808,197442.165,199608.875,,white
,Frame,canvas.Frame,3_77,2022-03-01T10:22:29.038Z,,,,0,V,2163.634999952308,,,,,199605.89999997616,199605.79999995232,197425.498,197441.29999995232,197442.165,199608.875,,white
,Fixation,canvas.Screen,3_78_0_0,2022-03-01T10:22:31.011Z,,,,1,VA,1983.3729999999923,timeout,,,,201577.89999997616,201575.581,199592.208,199607.09999996424,199608.875,201592.248,,white
,Stimulus,canvas.Screen,3_78_0_1,2022-03-01T10:22:31.111Z,,,,1,VA,100.00200000000768,timeout,,,,201678.19999998808,201675.583,201575.581,201578.09999996424,201592.248,201692.25,,white
,Reaction,canvas.Screen,3_78_0_2,2022-03-01T10:22:31.321Z,,,,1,VA,191.64999997615814,response,,stim_detected,keydown(Space),201888.5,201883.89999997616,201675.583,201678.39999997616,201692.25,201892.254,,white
,Trial,flow.Sequence,3_78_0,2022-03-01T10:22:31.321Z,,,,1,VA,2275.024999976158,completion,,,,201888.79999995232,201883.89999997616,199592.208,199607,199608.875,201892.254,,white
,Frame,canvas.Frame,3_78,2022-03-01T10:22:31.322Z,,,,1,VA,2279.9249999523163,,,,,201888.89999997616,201888.79999995232,199592.208,199606,199608.875,201892.254,,white
,Fixation,canvas.Screen,3_79_0_0,2022-03-01T10:22:33.477Z,,,,1,A,2166.710000000021,timeout,,,,204044.79999995232,204042.297,201875.587,201890,201892.254,204058.964,,grey
,Stimulus,canvas.Screen,3_79_0_1,2022-03-01T10:22:33.577Z,,,,1,A,100.00199999997858,timeout,,,,204144.09999996424,204142.299,204042.297,204045,204058.964,204158.966,,grey
,Reaction,canvas.Screen,3_79_0_2,2022-03-01T10:22:33.798Z,,,,1,A,203.73399998809327,response,,stim_detected,keydown(Space),204365.69999998808,204362.69999998808,204142.299,204144.19999998808,204158.966,204375.637,,grey
,Trial,flow.Sequence,3_79_0,2022-03-01T10:22:33.799Z,,,,1,A,2470.445999988093,completion,,,,204365.89999997616,204362.69999998808,201875.587,201890,201892.254,204375.637,,grey
,Frame,canvas.Frame,3_79,2022-03-01T10:22:33.799Z,,,,1,A,2473.7460000000137,,,,,204366,204366,201875.587,201889,201892.254,204375.637,,grey
,Fixation,canvas.Screen,3_80_0_0,2022-03-01T10:22:36.043Z,,,,1,VA,2250.045000000013,timeout,,,,206610.19999998808,206609.015,204358.97,204366.69999998808,204375.637,206625.682,,white
,Stimulus,canvas.Screen,3_80_0_1,2022-03-01T10:22:36.144Z,,,,1,VA,100.00200000000768,timeout,,,,206711.39999997616,206709.017,206609.015,206610.39999997616,206625.682,206725.684,,white
,Reaction,canvas.Screen,3_80_0_2,2022-03-01T10:22:36.334Z,,,,1,VA,171.0159999880707,response,,stim_detected,keydown(Space),206901.39999997616,206896.69999998808,206709.017,206711.5,206725.684,206909.021,,white
,Trial,flow.Sequence,3_80_0,2022-03-01T10:22:36.334Z,,,,1,VA,2521.062999988091,completion,,,,206901.69999998808,206896.69999998808,204358.97,204366.69999998808,204375.637,206909.021,,white
,Frame,canvas.Frame,3_80,2022-03-01T10:22:36.335Z,,,,1,VA,2526.062999988091,,,,,206901.79999995232,206901.69999998808,204358.97,204366,204375.637,206909.021,,white
,Fixation,canvas.Screen,3_81_0_0,2022-03-01T10:22:37.878Z,,,,0,V,1566.698000000004,timeout,,,,208444.69999998808,208442.385,206892.354,206902.89999997616,206909.021,208475.719,,white
,Stimulus,canvas.Screen,3_81_0_1,2022-03-01T10:22:37.994Z,,,,0,V,100.00199999997858,timeout,,,,208561.5,208559.054,208442.385,208444.89999997616,208475.719,208575.721,,white
,Reaction,canvas.Screen,3_81_0_2,2022-03-01T10:22:38.289Z,,,,0,V,275.87899996424676,response,,stim_detected,keydown(Space),208855.89999997616,208851.59999996424,208559.054,208561.79999995232,208575.721,208859.06,,white
,Trial,flow.Sequence,3_81_0,2022-03-01T10:22:38.289Z,,,,0,V,1942.5789999642293,completion,,,,208856.19999998808,208851.59999996424,206892.354,206902.79999995232,206909.021,208859.06,,white
,Frame,canvas.Frame,3_81,2022-03-01T10:22:38.289Z,,,,0,V,1947.3789999761502,,,,,208856.5,208856.39999997616,206892.354,206902,206909.021,208859.06,,white
,Fixation,canvas.Screen,3_82_0_0,2022-03-01T10:22:40.227Z,,,,0,V,1950.0389999999898,timeout,,,,210793.69999998808,210792.432,208842.393,208857.5,208859.06,210809.099,,white
,Stimulus,canvas.Screen,3_82_0_1,2022-03-01T10:22:40.328Z,,,,0,V,100.00200000000768,timeout,,,,210895,210892.434,210792.432,210793.89999997616,210809.099,210909.101,,white
,Reaction,canvas.Screen,3_82_0_2,2022-03-01T10:22:40.619Z,,,,0,V,273.1989999523212,response,,stim_detected,keydown(Space),211186.59999996424,211182.29999995232,210892.434,210895.19999998808,210909.101,211192.44,,white
,Trial,flow.Sequence,3_82_0,2022-03-01T10:22:40.620Z,,,,0,V,2323.2399999523186,completion,,,,211186.89999997616,211182.29999995232,208842.393,208857.5,208859.06,211192.44,,white
,Frame,canvas.Frame,3_82,2022-03-01T10:22:40.620Z,,,,0,V,2327.9400000000023,,,,,211187.09999996424,211187,208842.393,208856.59999996424,208859.06,211192.44,,white
,Fixation,canvas.Screen,3_83_0_0,2022-03-01T10:22:42.244Z,,,,1,VA,1633.366000000009,timeout,,,,212810.79999995232,212809.139,211175.773,211188.19999998808,211192.44,212825.806,,white
,Stimulus,canvas.Screen,3_83_0_1,2022-03-01T10:22:42.345Z,,,,1,VA,100.00199999997858,timeout,,,,212912.19999998808,212909.141,212809.139,212811,212825.806,212925.808,,white
,Reaction,canvas.Screen,3_83_0_2,2022-03-01T10:22:42.547Z,,,,1,VA,183.59199997616815,response,,stim_detected,keydown(Space),213113.69999998808,213109.39999997616,212909.141,212912.39999997616,212925.808,213125.812,,white
,Trial,flow.Sequence,3_83_0,2022-03-01T10:22:42.547Z,,,,1,VA,1916.9599999761558,completion,,,,213114,213109.39999997616,211175.773,211188.19999998808,211192.44,213125.812,,white
,Frame,canvas.Frame,3_83,2022-03-01T10:22:42.547Z,,,,1,VA,1921.6599999642349,,,,,213114.29999995232,213114.09999996424,211175.773,211187.19999998808,211192.44,213125.812,,white
,Fixation,canvas.Screen,3_84_0_0,2022-03-01T10:22:44.928Z,,,,1,VA,2383.380999999994,timeout,,,,215494.59999996424,215492.526,213109.145,213115.39999997616,213125.812,215509.193,,white
,Stimulus,canvas.Screen,3_84_0_1,2022-03-01T10:22:45.028Z,,,,1,VA,100.00200000000768,timeout,,,,215594.59999996424,215592.528,215492.526,215495.19999998808,215509.193,215609.195,,white
,Reaction,canvas.Screen,3_84_0_2,2022-03-01T10:22:45.290Z,,,,1,VA,243.0049999880721,response,,stim_detected,keydown(Space),215856.59999996424,215852.19999998808,215592.528,215594.79999995232,215609.195,215859.2,,white
,Trial,flow.Sequence,3_84_0,2022-03-01T10:22:45.290Z,,,,1,VA,2726.3879999880737,completion,,,,215856.89999997616,215852.19999998808,213109.145,213115.29999995232,213125.812,215859.2,,white
,Frame,canvas.Frame,3_84,2022-03-01T10:22:45.290Z,,,,1,VA,2731.1879999999946,,,,,215857.09999996424,215857,213109.145,213114.39999997616,213125.812,215859.2,,white
,Fixation,canvas.Screen,3_85_0_0,2022-03-01T10:22:46.928Z,,,,1,A,1650.0329999999958,timeout,,,,217495.19999998808,217492.566,215842.533,215858,215859.2,217509.233,,grey
,Stimulus,canvas.Screen,3_85_0_1,2022-03-01T10:22:47.028Z,,,,1,A,100.00199999997858,timeout,,,,217594.69999998808,217592.568,217492.566,217495.39999997616,217509.233,217609.235,,grey
,Reaction,canvas.Screen,3_85_0_2,2022-03-01T10:22:47.341Z,,,,1,A,293.8649999642512,response,,stim_detected,keydown(Space),217907.79999995232,217903.09999996424,217592.568,217595,217609.235,217909.241,,grey
,Trial,flow.Sequence,3_85_0,2022-03-01T10:22:47.341Z,,,,1,A,2043.8999999642256,completion,,,,217908.09999996424,217903.09999996424,215842.533,215858,215859.2,217909.241,,grey
,Frame,canvas.Frame,3_85,2022-03-01T10:22:47.341Z,,,,1,A,2048.8999999642256,,,,,217908.19999998808,217908.09999996424,215842.533,215857.19999998808,215859.2,217909.241,,grey
,Fixation,canvas.Screen,3_86_0_0,2022-03-01T10:22:49.695Z,,,,1,A,2366.713999999978,timeout,,,,220261.69999998808,220259.288,217892.574,217909.39999997616,217909.241,220275.955,,grey
,Stimulus,canvas.Screen,3_86_0_1,2022-03-01T10:22:49.794Z,,,,1,A,100.00200000000768,timeout,,,,220360.39999997616,220359.29,220259.288,220261.89999997616,220275.955,220375.957,,grey
,Reaction,canvas.Screen,3_86_0_2,2022-03-01T10:22:50.096Z,,,,1,A,282.0430000000051,response,,stim_detected,keydown(Space),220662.69999998808,220658,220359.29,220360.59999996424,220375.957,220675.963,,grey
,Trial,flow.Sequence,3_86_0,2022-03-01T10:22:50.096Z,,,,1,A,2748.758999999991,completion,,,,220663,220658,217892.574,217909.39999997616,217909.241,220675.963,,grey
,Frame,canvas.Frame,3_86,2022-03-01T10:22:50.096Z,,,,1,A,2753.858999964228,,,,,220663.19999998808,220663.09999996424,217892.574,217908.39999997616,217909.241,220675.963,,grey
,Fixation,canvas.Screen,3_87_0_0,2022-03-01T10:22:51.678Z,,,,1,VA,1583.3650000000198,timeout,,,,222244.69999998808,222242.661,220659.296,220664.29999995232,220675.963,222259.328,,white
,Stimulus,canvas.Screen,3_87_0_1,2022-03-01T10:22:51.779Z,,,,1,VA,100.00199999997858,timeout,,,,222345.5,222342.663,222242.661,222245,222259.328,222359.33,,white
,Reaction,canvas.Screen,3_87_0_2,2022-03-01T10:22:52.029Z,,,,1,VA,231.4699999523291,response,,stim_detected,keydown(Space),222595.59999996424,222590.79999995232,222342.663,222345.59999996424,222359.33,222609.335,,white
,Trial,flow.Sequence,3_87_0,2022-03-01T10:22:52.029Z,,,,1,VA,1914.8369999523275,completion,,,,222595.89999997616,222590.79999995232,220659.296,220664.29999995232,220675.963,222609.335,,white
,Frame,canvas.Frame,3_87,2022-03-01T10:22:52.029Z,,,,1,VA,1920.0370000000112,,,,,222596.19999998808,222596,220659.296,220663.29999995232,220675.963,222609.335,,white
,Fixation,canvas.Screen,3_88_0_0,2022-03-01T10:22:54.378Z,,,,1,A,2350.0470000000205,timeout,,,,224944.89999997616,224942.715,222592.668,222597.29999995232,222609.335,224959.382,,grey
,Stimulus,canvas.Screen,3_88_0_1,2022-03-01T10:22:54.478Z,,,,1,A,100.00199999997858,timeout,,,,225045.19999998808,225042.717,224942.715,224945,224959.382,225059.384,,grey
,Reaction,canvas.Screen,3_88_0_2,2022-03-01T10:22:54.758Z,,,,1,A,261.31599998808815,response,,stim_detected,keydown(Space),225325.19999998808,225320.69999998808,225042.717,225045.5,225059.384,225342.723,,grey
,Trial,flow.Sequence,3_88_0,2022-03-01T10:22:54.759Z,,,,1,A,2711.364999988087,completion,,,,225325.59999996424,225320.69999998808,222592.668,222597.19999998808,222609.335,225342.723,,grey
,Frame,canvas.Frame,3_88,2022-03-01T10:22:54.759Z,,,,1,A,2716.4649999523244,,,,,225325.89999997616,225325.79999995232,222592.668,222596.19999998808,222609.335,225342.723,,grey
,Fixation,canvas.Screen,3_89_0_0,2022-03-01T10:22:57.245Z,,,,1,A,2483.3830000000016,timeout,,,,227811.79999995232,227809.439,225326.056,225327,225342.723,227826.106,,grey
,Stimulus,canvas.Screen,3_89_0_1,2022-03-01T10:22:57.346Z,,,,1,A,100.00200000000768,timeout,,,,227912.59999996424,227909.441,227809.439,227812,227826.106,227926.108,,grey
,Reaction,canvas.Screen,3_89_0_2,2022-03-01T10:22:57.626Z,,,,1,A,261.49199996422976,response,,stim_detected,keydown(Space),228192.19999998808,228187.59999996424,227909.441,227912.79999995232,227926.108,228209.447,,grey
,Trial,flow.Sequence,3_89_0,2022-03-01T10:22:57.626Z,,,,1,A,2844.876999964239,completion,,,,228192.5,228187.59999996424,225326.056,225326.89999997616,225342.723,228209.447,,grey
,Frame,canvas.Frame,3_89,2022-03-01T10:22:57.626Z,,,,1,A,2849.876999964239,,,,,228192.59999996424,228192.59999996424,225326.056,225326,225342.723,228209.447,,grey
,Fixation,canvas.Screen,3_90_0_0,2022-03-01T10:22:59.545Z,,,,1,A,1916.7050000000163,timeout,,,,230111.89999997616,230109.485,228192.78,228193.79999995232,228209.447,230126.152,,grey
,Stimulus,canvas.Screen,3_90_0_1,2022-03-01T10:22:59.645Z,,,,1,A,100.00200000000768,timeout,,,,230211.39999997616,230209.487,230109.485,230112.09999996424,230126.152,230226.154,,grey
,Reaction,canvas.Screen,3_90_0_2,2022-03-01T10:22:59.926Z,,,,1,A,262.2459999761486,response,,stim_detected,keydown(Space),230493.09999996424,230488.39999997616,230209.487,230211.69999998808,230226.154,230542.827,,grey
,Trial,flow.Sequence,3_90_0,2022-03-01T10:22:59.927Z,,,,1,A,2278.9529999761726,completion,,,,230493.39999997616,230488.39999997616,228192.78,228193.69999998808,228209.447,230542.827,,grey
,Frame,canvas.Frame,3_90,2022-03-01T10:22:59.927Z,,,,1,A,2284.0530000000144,,,,,230493.59999996424,230493.5,228192.78,228192.79999995232,228209.447,230542.827,,grey
,Fixation,canvas.Screen,3_91_0_0,2022-03-01T10:23:01.462Z,,,,0,V,1500.0299999999988,timeout,,,,232028.29999995232,232026.19,230492.826,230494.69999998808,230542.827,232042.857,,white
,Stimulus,canvas.Screen,3_91_0_1,2022-03-01T10:23:01.562Z,,,,0,V,100.00200000000768,timeout,,,,232128.89999997616,232126.192,232026.19,232028.59999996424,232042.857,232142.859,,white
,Reaction,canvas.Screen,3_91_0_2,2022-03-01T10:23:01.876Z,,,,0,V,295.44099995231954,response,,stim_detected,keydown(Space),232442.79999995232,232438.29999995232,232126.192,232129.19999998808,232142.859,232459.532,,white
,Trial,flow.Sequence,3_91_0,2022-03-01T10:23:01.877Z,,,,0,V,1895.472999952326,completion,,,,232443.09999996424,232438.29999995232,230492.826,230494.59999996424,230542.827,232459.532,,white
,Frame,canvas.Frame,3_91,2022-03-01T10:23:01.877Z,,,,0,V,1900.3729999880888,,,,,232443.29999995232,232443.19999998808,230492.826,230493.69999998808,230542.827,232459.532,,white
,Fixation,canvas.Screen,3_92_0_0,2022-03-01T10:23:03.929Z,,,,1,VA,2050.0409999999974,timeout,,,,234495.09999996424,234492.906,232442.865,232444.29999995232,232459.532,234509.573,,white
,Stimulus,canvas.Screen,3_92_0_1,2022-03-01T10:23:04.028Z,,,,1,VA,100.00200000000768,timeout,,,,234595,234592.908,234492.906,234495.29999995232,234509.573,234609.575,,white
,Reaction,canvas.Screen,3_92_0_2,2022-03-01T10:23:04.251Z,,,,1,VA,203.52499996422557,response,,stim_detected,keydown(Space),234817.79999995232,234813.09999996424,234592.908,234595.19999998808,234609.575,234826.246,,white
,Trial,flow.Sequence,3_92_0,2022-03-01T10:23:04.252Z,,,,1,VA,2353.5679999642307,completion,,,,234818.29999995232,234813.09999996424,232442.865,232444.29999995232,232459.532,234826.246,,white
,Frame,canvas.Frame,3_92,2022-03-01T10:23:04.252Z,,,,1,VA,2358.7679999523098,,,,,234818.39999997616,234818.29999995232,232442.865,232443.39999997616,232459.532,234826.246,,white
,Fixation,canvas.Screen,3_93_0_0,2022-03-01T10:23:06.462Z,,,,1,VA,2216.710999999981,timeout,,,,237028.69999998808,237026.29,234809.579,234820,234826.246,237042.957,,white
,Stimulus,canvas.Screen,3_93_0_1,2022-03-01T10:23:06.562Z,,,,1,VA,100.00200000000768,timeout,,,,237128.5,237126.292,237026.29,237028.89999997616,237042.957,237142.959,,white
,Reaction,canvas.Screen,3_93_0_2,2022-03-01T10:23:06.740Z,,,,1,VA,159.04099999999744,response,,stim_detected,keydown(Space),237306.5,237302,237126.292,237128.79999995232,237142.959,237309.629,,white
,Trial,flow.Sequence,3_93_0,2022-03-01T10:23:06.740Z,,,,1,VA,2475.7539999999863,completion,,,,237306.79999995232,237302,234809.579,234819.89999997616,234826.246,237309.629,,white
,Frame,canvas.Frame,3_93,2022-03-01T10:23:06.741Z,,,,1,VA,2480.5539999523025,,,,,237306.89999997616,237306.79999995232,234809.579,234818.59999996424,234826.246,237309.629,,white
,Fixation,canvas.Screen,3_94_0_0,2022-03-01T10:23:09.096Z,,,,1,VA,2366.714000000007,timeout,,,,239662,239659.676,237292.962,237307.89999997616,237309.629,239676.343,,white
,Stimulus,canvas.Screen,3_94_0_1,2022-03-01T10:23:09.196Z,,,,1,VA,100.00200000000768,timeout,,,,239762.59999996424,239759.678,239659.676,239662.19999998808,239676.343,239776.345,,white
,Reaction,canvas.Screen,3_94_0_2,2022-03-01T10:23:09.395Z,,,,1,VA,180.55499997615698,response,,stim_detected,keydown(Space),239961.69999998808,239956.89999997616,239759.678,239762.79999995232,239776.345,239976.349,,white
,Trial,flow.Sequence,3_94_0,2022-03-01T10:23:09.396Z,,,,1,VA,2647.270999976172,completion,,,,239962,239956.89999997616,237292.962,237307.89999997616,237309.629,239976.349,,white
,Frame,canvas.Frame,3_94,2022-03-01T10:23:09.396Z,,,,1,VA,2652.570999988093,,,,,239962.19999998808,239962.19999998808,237292.962,237307.09999996424,237309.629,239976.349,,white
,Fixation,canvas.Screen,3_95_0_0,2022-03-01T10:23:11.129Z,,,,1,A,1733.3680000000168,timeout,,,,241695.79999995232,241693.05,239959.682,239963.5,239976.349,241709.717,,grey
,Stimulus,canvas.Screen,3_95_0_1,2022-03-01T10:23:11.229Z,,,,1,A,100.00200000000768,timeout,,,,241795.39999997616,241793.052,241693.05,241696,241709.717,241809.719,,grey
,Reaction,canvas.Screen,3_95_0_2,2022-03-01T10:23:11.523Z,,,,1,A,275.0809999523044,response,,stim_detected,keydown(Space),242089.19999998808,242084.79999995232,241793.052,241795.59999996424,241809.719,242093.058,,grey
,Trial,flow.Sequence,3_95_0,2022-03-01T10:23:11.523Z,,,,1,A,2108.450999952329,completion,,,,242089.5,242084.79999995232,239959.682,239963.39999997616,239976.349,242093.058,,grey
,Frame,canvas.Frame,3_95,2022-03-01T10:23:11.523Z,,,,1,A,2113.25099996425,,,,,242089.59999996424,242089.59999996424,239959.682,239962.29999995232,239976.349,242093.058,,grey
,Fixation,canvas.Screen,3_96_0_0,2022-03-01T10:23:13.446Z,,,,1,VA,1933.372000000003,timeout,,,,244012.5,244009.763,242076.391,242090.69999998808,242093.058,244026.43,,white
,Stimulus,canvas.Screen,3_96_0_1,2022-03-01T10:23:13.546Z,,,,1,VA,100.00200000000768,timeout,,,,244111.89999997616,244109.765,244009.763,244012.69999998808,244026.43,244126.432,,white
,Reaction,canvas.Screen,3_96_0_2,2022-03-01T10:23:13.745Z,,,,1,VA,180.16799996423651,response,,stim_detected,keydown(Space),244311.29999995232,244306.59999996424,244109.765,244112.09999996424,244126.432,244326.436,,white
,Trial,flow.Sequence,3_96_0,2022-03-01T10:23:13.745Z,,,,1,VA,2213.541999964247,completion,,,,244311.59999996424,244306.59999996424,242076.391,242090.59999996424,242093.058,244326.436,,white
,Frame,canvas.Frame,3_96,2022-03-01T10:23:13.746Z,,,,1,VA,2218.641999988089,,,,,244311.79999995232,244311.69999998808,242076.391,242089.79999995232,242093.058,244326.436,,white
,Fixation,canvas.Screen,3_97_0_0,2022-03-01T10:23:15.780Z,,,,0,V,2033.3740000000107,timeout,,,,246345.69999998808,246343.143,244309.769,244312.79999995232,244326.436,246359.81,,white
,Stimulus,canvas.Screen,3_97_0_1,2022-03-01T10:23:15.879Z,,,,0,V,100.00200000000768,timeout,,,,246445.5,246443.145,246343.143,246345.89999997616,246359.81,246459.812,,white
,Reaction,canvas.Screen,3_97_0_2,2022-03-01T10:23:16.196Z,,,,0,V,297.68799999999464,response,,stim_detected,keydown(Space),246762.09999996424,246757.5,246443.145,246445.69999998808,246459.812,246776.485,,white
,Trial,flow.Sequence,3_97_0,2022-03-01T10:23:16.196Z,,,,0,V,2431.064000000013,completion,,,,246762.39999997616,246757.5,244309.769,244312.79999995232,244326.436,246776.485,,white
,Frame,canvas.Frame,3_97,2022-03-01T10:23:16.196Z,,,,0,V,2436.1639999642503,,,,,246762.59999996424,246762.59999996424,244309.769,244311.89999997616,244326.436,246776.485,,white
,Fixation,canvas.Screen,3_98_0_0,2022-03-01T10:23:18.313Z,,,,0,V,2116.7090000000026,timeout,,,,248879.59999996424,248876.527,246759.818,246763.79999995232,246776.485,248893.194,,white
,Stimulus,canvas.Screen,3_98_0_1,2022-03-01T10:23:18.413Z,,,,0,V,100.00200000000768,timeout,,,,248978.69999998808,248976.529,248876.527,248879.79999995232,248893.194,248993.196,,white
,Reaction,canvas.Screen,3_98_0_2,2022-03-01T10:23:18.614Z,,,,0,V,183.0039999880828,response,,stim_detected,keydown(Space),249180.5,249176.19999998808,248976.529,248979,248993.196,249193.2,,white
,Trial,flow.Sequence,3_98_0,2022-03-01T10:23:18.615Z,,,,0,V,2399.714999988093,completion,,,,249180.89999997616,249176.19999998808,246759.818,246763.59999996424,246776.485,249193.2,,white
,Frame,canvas.Frame,3_98,2022-03-01T10:23:18.615Z,,,,0,V,2404.515000000014,,,,,249181.09999996424,249181,246759.818,246762.69999998808,246776.485,249193.2,,white
,Fixation,canvas.Screen,3_99_0_0,2022-03-01T10:23:20.363Z,,,,0,V,1750.0349999999744,timeout,,,,250929.09999996424,250926.568,249176.533,249182.19999998808,249193.2,250943.235,,white
,Stimulus,canvas.Screen,3_99_0_1,2022-03-01T10:23:20.462Z,,,,0,V,100.00200000000768,timeout,,,,251028.19999998808,251026.57,250926.568,250929.19999998808,250943.235,251043.237,,white
,Reaction,canvas.Screen,3_99_0_2,2022-03-01T10:23:20.724Z,,,,0,V,242.06299995232257,response,,stim_detected,keydown(Space),251289.79999995232,251285.29999995232,251026.57,251028.39999997616,251043.237,251343.243,,white
,Trial,flow.Sequence,3_99_0,2022-03-01T10:23:20.724Z,,,,0,V,2092.0999999523046,completion,,,,251290.19999998808,251285.29999995232,249176.533,249182.09999996424,249193.2,251343.243,,white
,Frame,canvas.Frame,3_99,2022-03-01T10:23:20.724Z,,,,0,V,2097.0999999523046,,,,,251290.39999997616,251290.29999995232,249176.533,249181.39999997616,249193.2,251343.243,,white
,Loop,flow.Loop,3,2022-03-01T10:23:20.725Z,,,,,,237501.80799995232,completion,,,,251290.69999998808,251290.29999995232,13771.825,13775,13788.492,251343.243,,
,end,html.Page,4,2022-03-01T10:23:22.606Z,,,,,,1828.4569999880914,form submission,,,,253172.29999995232,253171.69999998808,251326.576,251290.79999995232,251343.243,253176.613,,
,root,flow.Sequence,,2022-03-01T10:23:22.607Z,,,,,,252183.46399998807,completion,,,,253173.29999995232,253171.69999998808,971.569,979.7999999523163,988.236,253176.613,,