id,sender,sender_type,sender_id,timestamp,meta,,age,aud,condition,duration,ended_on,gender,response,response_action,time_commit,time_end,time_render,time_run,time_show,time_switch,url,vis
Pagoda,Hello,html.Page,0,2022-03-01T10:31:49.832Z,"{""labjs_version"":""20.2.4"",""labjs_build"":{""flavor"":""development"",""commit"":""f5b4a49f956347addd546a832a3327688c2c0fef""},""location"":""https://labjs.felixhenninger.com/api/labjs_preview/index.html"",""userAgent"":""Mozilla/5.0 (Macintosh; Intel Mac OS X 10_15_7) AppleWebKit/537.36 (KHTML, like Gecko) Chrome/98.0.4758.80 Safari/537.36"",""platform"":""MacIntel"",""language"":""de-DE"",""locale"":""de"",""timeZone"":""Europe/Berlin"",""timezoneOffset"":-60,""screen_width"":1440,""screen_height"":900,""scroll_width"":1440,""scroll_height"":708,""window_innerWidth"":1440,""window_innerHeight"":756,""devicePixelRatio"":1}",,70,,,11843.032999976158,form submission,male,,,13135.199999988079,13134.399999976158,1274.7,1273.8999999761581,1291.367,13124.937,{},
,Instructions,html.Page,1,2022-03-01T10:31:50.699Z,,,,,,876.2629999880792,form submission,,,,14001.899999976158,14001.199999988079,13108.27,13135.800000011921,13124.937,14008.288,,
,Change Background,canvas.Screen,2,2022-03-01T10:31:53.692Z,,,,,,3000.0600000000013,timeout,,,,16995,16991.681,13991.621,14002.100000023842,14008.288,17008.348,,
,Fixation,canvas.Screen,3_0_0_0,2022-03-01T10:31:56.008Z,,,,1,VA,2316.7129999999997,timeout,,,,19311,19308.394,16991.681,16996.600000023842,17008.348,19325.061,,white
,Stimulus,canvas.Screen,3_0_0_1,2022-03-01T10:31:56.108Z,,,,1,VA,100.00199999999677,timeout,,,,19410.80000001192,19408.396,19308.394,19311.30000001192,19325.061,19425.063,,white
,Reaction,canvas.Screen,3_0_0_2,2022-03-01T10:31:56.394Z,,,,1,VA,253.1369999880808,response,,stim_detected,keydown(Space),19697.30000001192,19678.19999998808,19408.396,19411,19425.063,19691.735,,white
,Trial,flow.Sequence,3_0_0,2022-03-01T10:31:56.394Z,,,,1,VA,2669.8519999880773,completion,,,,19697.600000023842,19678.19999998808,16991.681,16996.5,17008.348,19691.735,,white
,Frame,canvas.Frame,3_0,2022-03-01T10:31:56.395Z,,,,1,VA,2689.25200002384,,,,,19697.69999998808,19697.600000023842,16991.681,16995.30000001192,17008.348,19691.735,,white
,Fixation,canvas.Screen,3_1_0_0,2022-03-01T10:31:57.991Z,,,,1,A,1616.6990000000005,timeout,,,,21294.100000023842,21291.767,19675.068,19698.399999976158,19691.735,21308.434,,grey
,Stimulus,canvas.Screen,3_1_0_1,2022-03-01T10:31:58.091Z,,,,1,A,100.00200000000041,timeout,,,,21394.100000023842,21391.769,21291.767,21294.5,21308.434,21408.436,,grey
,Reaction,canvas.Screen,3_1_0_2,2022-03-01T10:31:58.343Z,,,,1,A,232.16400002384034,response,,stim_detected,keydown(Space),21645.5,21640.600000023842,21391.769,21394.399999976158,21408.436,21675.108,,grey
,Trial,flow.Sequence,3_1_0,2022-03-01T10:31:58.343Z,,,,1,A,1948.8650000238413,completion,,,,21646.19999998808,21640.600000023842,19675.068,19698.30000001192,19691.735,21675.108,,grey
,Frame,canvas.Frame,3_1,2022-03-01T10:31:58.343Z,,,,1,A,1954.5650000119203,,,,,21646.5,21646.30000001192,19675.068,19697.80000001192,19691.735,21675.108,,grey
,Fixation,canvas.Screen,3_2_0_0,2022-03-01T10:31:59.891Z,,,,1,VA,1533.3640000000014,timeout,,,,23194,23191.805,21641.774,21647.80000001192,21675.108,23208.472,,white
,Stimulus,canvas.Screen,3_2_0_1,2022-03-01T10:31:59.992Z,,,,1,VA,100.00199999999677,timeout,,,,23294.5,23291.807,23191.805,23194.30000001192,23208.472,23308.474,,white
,Reaction,canvas.Screen,3_2_0_2,2022-03-01T10:32:00.180Z,,,,1,VA,170.12600002384352,response,,stim_detected,keydown(Space),23483.30000001192,23478.600000023842,23291.807,23294.69999998808,23308.474,23491.811,,white
,Trial,flow.Sequence,3_2_0,2022-03-01T10:32:00.181Z,,,,1,VA,1803.4920000238417,completion,,,,23483.69999998808,23478.600000023842,21641.774,21647.69999998808,21675.108,23491.811,,white
,Frame,canvas.Frame,3_2,2022-03-01T10:32:00.181Z,,,,1,VA,1808.6920000119208,,,,,23483.899999976158,23483.80000001192,21641.774,21646.600000023842,21675.108,23491.811,,white
,Fixation,canvas.Screen,3_3_0_0,2022-03-01T10:32:02.424Z,,,,0,V,2250.0449999999983,timeout,,,,25727.19999998808,25725.189,23475.144,23485,23491.811,25741.856,,white
,Stimulus,canvas.Screen,3_3_0_1,2022-03-01T10:32:02.523Z,,,,0,V,100.00200000000041,timeout,,,,25826.19999998808,25825.191,25725.189,25727.399999976158,25741.856,25841.858,,white
,Reaction,canvas.Screen,3_3_0_2,2022-03-01T10:32:02.767Z,,,,0,V,223.64199999999983,response,,stim_detected,keydown(Space),26070,26065.5,25825.191,25826.399999976158,25841.858,26075.196,,white
,Trial,flow.Sequence,3_3_0,2022-03-01T10:32:02.767Z,,,,0,V,2573.6889999999985,completion,,,,26070.399999976158,26065.5,23475.144,23485,23491.811,26075.196,,white
,Frame,canvas.Frame,3_3,2022-03-01T10:32:02.768Z,,,,0,V,2578.6889999999985,,,,,26070.600000023842,26070.5,23475.144,23484,23491.811,26075.196,,white
,Fixation,canvas.Screen,3_4_0_0,2022-03-01T10:32:04.458Z,,,,0,V,1700.0339999999997,timeout,,,,27761,27758.563,26058.529,26071.69999998808,26075.196,27775.23,,white
,Stimulus,canvas.Screen,3_4_0_1,2022-03-01T10:32:04.558Z,,,,0,V,100.00200000000041,timeout,,,,27860.69999998808,27858.565,27758.563,27761.19999998808,27775.23,27875.232,,white
,Reaction,canvas.Screen,3_4_0_2,2022-03-01T10:32:04.790Z,,,,0,V,213.06800001192096,response,,stim_detected,keydown(Space),28092.80000001192,28088.30000001192,27858.565,27860.899999976158,27875.232,28108.57,,white
,Trial,flow.Sequence,3_4_0,2022-03-01T10:32:04.790Z,,,,0,V,2013.104000011921,completion,,,,28093.100000023842,28088.30000001192,26058.529,26071.600000023842,26075.196,28108.57,,white
,Frame,canvas.Frame,3_4,2022-03-01T10:32:04.791Z,,,,0,V,2017.904000023842,,,,,28093.5,28093.100000023842,26058.529,26070.600000023842,26075.196,28108.57,,white
,Fixation,canvas.Screen,3_5_0_0,2022-03-01T10:32:06.691Z,,,,1,VA,1900.0380000000005,timeout,,,,29993.899999976158,29991.941,28091.903,28094.600000023842,28108.57,30008.608,,white
,Stimulus,canvas.Screen,3_5_0_1,2022-03-01T10:32:06.792Z,,,,1,VA,100.00200000000041,timeout,,,,30094.399999976158,30091.943,29991.941,29994.100000023842,30008.608,30108.61,,white
,Reaction,canvas.Screen,3_5_0_2,2022-03-01T10:32:06.973Z,,,,1,VA,162.5899999880785,response,,stim_detected,keydown(Space),30275.899999976158,30271.19999998808,30091.943,30094.69999998808,30108.61,30291.947,,white
,Trial,flow.Sequence,3_5_0,2022-03-01T10:32:06.973Z,,,,1,VA,2162.6299999880794,completion,,,,30276.30000001192,30271.19999998808,28091.903,28094.5,28108.57,30291.947,,white
,Frame,canvas.Frame,3_5,2022-03-01T10:32:06.974Z,,,,1,VA,2167.730000011921,,,,,30276.399999976158,30276.30000001192,28091.903,28093.69999998808,28108.57,30291.947,,white
,Fixation,canvas.Screen,3_6_0_0,2022-03-01T10:32:09.192Z,,,,1,A,2216.7109999999993,timeout,,,,32494.30000001192,32491.991,30275.28,30277.80000001192,30291.947,32508.658,,grey
,Stimulus,canvas.Screen,3_6_0_1,2022-03-01T10:32:09.292Z,,,,1,A,100.00200000000041,timeout,,,,32594.399999976158,32591.993,32491.991,32494.5,32508.658,32608.66,,grey
,Reaction,canvas.Screen,3_6_0_2,2022-03-01T10:32:09.562Z,,,,1,A,251.440000023842,response,,stim_detected,keydown(Space),32865,32860.10000002384,32591.993,32594.5,32608.66,32891.999,,grey
,Trial,flow.Sequence,3_6_0,2022-03-01T10:32:09.563Z,,,,1,A,2568.1530000238417,completion,,,,32865.30000001192,32860.10000002384,30275.28,30277.69999998808,30291.947,32891.999,,grey
,Frame,canvas.Frame,3_6,2022-03-01T10:32:09.563Z,,,,1,A,2573.353000011921,,,,,32865.5,32865.30000001192,30275.28,30276.5,30291.947,32891.999,,grey
,Fixation,canvas.Screen,3_7_0_0,2022-03-01T10:32:11.457Z,,,,0,V,1883.3709999999992,timeout,,,,34759.80000001192,34758.703,32858.665,32866.69999998808,32891.999,34775.37,,white
,Stimulus,canvas.Screen,3_7_0_1,2022-03-01T10:32:11.559Z,,,,0,V,100.00200000000041,timeout,,,,34861.30000001192,34858.705,34758.703,34760,34775.37,34875.372,,white
,Reaction,canvas.Screen,3_7_0_2,2022-03-01T10:32:11.786Z,,,,0,V,208.72800002383883,response,,stim_detected,keydown(Space),35088.5,35084.10000002384,34858.705,34861.60000002384,34875.372,35092.043,,white
,Trial,flow.Sequence,3_7_0,2022-03-01T10:32:11.786Z,,,,0,V,2192.1010000238384,completion,,,,35088.89999997616,35084.10000002384,32858.665,32866.60000002384,32891.999,35092.043,,white
,Frame,canvas.Frame,3_7,2022-03-01T10:32:11.786Z,,,,0,V,2196.9009999761547,,,,,35089,35088.89999997616,32858.665,32865.60000002384,32891.999,35092.043,,white
,Fixation,canvas.Screen,3_8_0_0,2022-03-01T10:32:13.859Z,,,,0,V,2083.375,timeout,,,,37161.30000001192,37158.751,35075.376,35090.30000001192,35092.043,37175.418,,white
,Stimulus,canvas.Screen,3_8_0_1,2022-03-01T10:32:13.958Z,,,,0,V,100.00200000000041,timeout,,,,37261.10000002384,37258.753,37158.751,37161.5,37175.418,37275.42,,white
,Reaction,canvas.Screen,3_8_0_2,2022-03-01T10:32:14.186Z,,,,0,V,208.38000001192268,response,,stim_detected,keydown(Space),37488.39999997616,37483.80000001192,37258.753,37261.19999998808,37275.42,37492.091,,white
,Trial,flow.Sequence,3_8_0,2022-03-01T10:32:14.186Z,,,,0,V,2391.757000011923,completion,,,,37488.69999998808,37483.80000001192,35075.376,35090.19999998808,35092.043,37492.091,,white
,Frame,canvas.Frame,3_8,2022-03-01T10:32:14.186Z,,,,0,V,2396.757000011923,,,,,37488.89999997616,37488.80000001192,35075.376,35089.19999998808,35092.043,37492.091,,white
,Fixation,canvas.Screen,3_9_0_0,2022-03-01T10:32:15.674Z,,,,0,V,1500.0299999999988,timeout,,,,38977,38975.454,37475.424,37489.89999997616,37492.091,38992.121,,white
,Stimulus,canvas.Screen,3_9_0_1,2022-03-01T10:32:15.775Z,,,,0,V,100.00200000000041,timeout,,,,39077.89999997616,39075.456,38975.454,38977.19999998808,38992.121,39092.123,,white
,Reaction,canvas.Screen,3_9_0_2,2022-03-01T10:32:15.992Z,,,,0,V,197.57699998807948,response,,stim_detected,keydown(Space),39294.39999997616,39289.69999998808,39075.456,39078.10000002384,39092.123,39308.794,,white
,Trial,flow.Sequence,3_9_0,2022-03-01T10:32:15.992Z,,,,0,V,1797.6089999880787,completion,,,,39294.69999998808,39289.69999998808,37475.424,37489.80000001192,37492.091,39308.794,,white
,Frame,canvas.Frame,3_9,2022-03-01T10:32:15.992Z,,,,0,V,1802.6089999880787,,,,,39294.80000001192,39294.69999998808,37475.424,37489,37492.091,39308.794,,white
,Fixation,canvas.Screen,3_10_0_0,2022-03-01T10:32:18.157Z,,,,0,V,2166.709999999999,timeout,,,,41459.80000001192,41458.837,39292.127,39295.89999997616,39308.794,41475.504,,white
,Stimulus,canvas.Screen,3_10_0_1,2022-03-01T10:32:18.259Z,,,,0,V,100.00200000000041,timeout,,,,41561.5,41558.839,41458.837,41460,41475.504,41575.506,,white
,Reaction,canvas.Screen,3_10_0_2,2022-03-01T10:32:18.456Z,,,,0,V,178.09400002384064,response,,stim_detected,keydown(Space),41758.5,41753.60000002384,41558.839,41561.69999998808,41575.506,41792.177,,white
,Trial,flow.Sequence,3_10_0,2022-03-01T10:32:18.456Z,,,,0,V,2444.80600002384,completion,,,,41758.69999998808,41753.60000002384,39292.127,39295.89999997616,39308.794,41792.177,,white
,Frame,canvas.Frame,3_10,2022-03-01T10:32:18.456Z,,,,0,V,2450.0060000119192,,,,,41758.89999997616,41758.80000001192,39292.127,39295,39308.794,41792.177,,white
,Fixation,canvas.Screen,3_11_0_0,2022-03-01T10:32:20.092Z,,,,1,A,1616.6989999999932,timeout,,,,43394.60000002384,43392.209,41758.843,41760.10000002384,41792.177,43408.876,,grey
,Stimulus,canvas.Screen,3_11_0_1,2022-03-01T10:32:20.192Z,,,,1,A,100.00200000000041,timeout,,,,43494.19999998808,43492.211,43392.209,43394.80000001192,43408.876,43508.878,,grey
,Reaction,canvas.Screen,3_11_0_2,2022-03-01T10:32:20.459Z,,,,1,A,247.8219999880821,response,,stim_detected,keydown(Space),43761.60000002384,43756.69999998808,43492.211,43494.5,43508.878,43775.55,,grey
,Trial,flow.Sequence,3_11_0,2022-03-01T10:32:20.460Z,,,,1,A,1964.5229999880758,completion,,,,43761.89999997616,43756.69999998808,41758.843,41760,41792.177,43775.55,,grey
,Frame,canvas.Frame,3_11,2022-03-01T10:32:20.460Z,,,,1,A,1969.8229999999967,,,,,43762.19999998808,43762,41758.843,41759.10000002384,41792.177,43775.55,,grey
,Fixation,canvas.Screen,3_12_0_0,2022-03-01T10:32:22.175Z,,,,1,A,1716.7009999999937,timeout,,,,45477,45475.584,43758.883,43763.30000001192,43775.55,45492.251,,grey
,Stimulus,canvas.Screen,3_12_0_1,2022-03-01T10:32:22.275Z,,,,1,A,100.00200000000041,timeout,,,,45577.80000001192,45575.586,45475.584,45477.10000002384,45492.251,45592.253,,grey
,Reaction,canvas.Screen,3_12_0_2,2022-03-01T10:32:22.510Z,,,,1,A,215.24700000000303,response,,stim_detected,keydown(Space),45811.89999997616,45807.5,45575.586,45578,45592.253,45825.591,,grey
,Trial,flow.Sequence,3_12_0,2022-03-01T10:32:22.510Z,,,,1,A,2031.949999999997,completion,,,,45812.19999998808,45807.5,43758.883,43763.10000002384,43775.55,45825.591,,grey
,Frame,canvas.Frame,3_12,2022-03-01T10:32:22.510Z,,,,1,A,2036.750000011918,,,,,45812.39999997616,45812.30000001192,43758.883,43762.19999998808,43775.55,45825.591,,grey
,Fixation,canvas.Screen,3_13_0_0,2022-03-01T10:32:24.158Z,,,,0,V,1650.033000000003,timeout,,,,47460.69999998808,47458.957,45808.924,45813.39999997616,45825.591,47475.624,,white
,Stimulus,canvas.Screen,3_13_0_1,2022-03-01T10:32:24.259Z,,,,0,V,100.00199999999313,timeout,,,,47560.80000001192,47558.959,47458.957,47460.89999997616,47475.624,47575.626,,white
,Reaction,canvas.Screen,3_13_0_2,2022-03-01T10:32:24.503Z,,,,0,V,225.67400001192436,response,,stim_detected,keydown(Space),47805.60000002384,47801.30000001192,47558.959,47561,47575.626,47808.964,,white
,Trial,flow.Sequence,3_13_0,2022-03-01T10:32:24.504Z,,,,0,V,1975.7090000119206,completion,,,,47805.89999997616,47801.30000001192,45808.924,45813.30000001192,45825.591,47808.964,,white
,Frame,canvas.Frame,3_13,2022-03-01T10:32:24.504Z,,,,0,V,1980.4089999999997,,,,,47806.10000002384,47806,45808.924,45812.5,45825.591,47808.964,,white
,Fixation,canvas.Screen,3_14_0_0,2022-03-01T10:32:26.742Z,,,,0,V,2250.0449999999983,timeout,,,,50044.39999997616,50042.342,47792.297,47807.60000002384,47808.964,50059.009,,white
,Stimulus,canvas.Screen,3_14_0_1,2022-03-01T10:32:26.842Z,,,,0,V,100.00200000000041,timeout,,,,50144.10000002384,50142.344,50042.342,50044.60000002384,50059.009,50159.011,,white
,Reaction,canvas.Screen,3_14_0_2,2022-03-01T10:32:27.032Z,,,,0,V,171.08900002384325,response,,stim_detected,keydown(Space),50334.60000002384,50330.10000002384,50142.344,50144.30000001192,50159.011,50342.348,,white
,Trial,flow.Sequence,3_14_0,2022-03-01T10:32:27.033Z,,,,0,V,2521.136000023842,completion,,,,50334.80000001192,50330.10000002384,47792.297,47807.5,47808.964,50342.348,,white
,Frame,canvas.Frame,3_14,2022-03-01T10:32:27.033Z,,,,0,V,2526.036,,,,,50335,50335,47792.297,47806.19999998808,47808.964,50342.348,,white
,Fixation,canvas.Screen,3_15_0_0,2022-03-01T10:32:29.409Z,,,,1,VA,2383.381000000001,timeout,,,,52711.60000002384,52709.062,50325.681,50336.10000002384,50342.348,52725.729,,white
,Stimulus,canvas.Screen,3_15_0_1,2022-03-01T10:32:29.509Z,,,,1,VA,100.00200000000041,timeout,,,,52811.19999998808,52809.064,52709.062,52711.89999997616,52725.729,52825.731,,white
,Reaction,canvas.Screen,3_15_0_2,2022-03-01T10:32:29.667Z,,,,1,VA,139.26900000000023,response,,stim_detected,keydown(Space),52969.60000002384,52965,52809.064,52811.39999997616,52825.731,52975.734,,white
,Trial,flow.Sequence,3_15_0,2022-03-01T10:32:29.668Z,,,,1,VA,2622.652000000002,completion,,,,52969.80000001192,52965,50325.681,50336,50342.348,52975.734,,white
,Frame,canvas.Frame,3_15,2022-03-01T10:32:29.668Z,,,,1,VA,2627.55199997616,,,,,52970.10000002384,52969.89999997616,50325.681,50335.10000002384,50342.348,52975.734,,white
,Fixation,canvas.Screen,3_16_0_0,2022-03-01T10:32:31.608Z,,,,1,A,1950.0390000000043,timeout,,,,54909.69999998808,54909.106,52959.067,52971.10000002384,52975.734,54925.773,,grey
,Stimulus,canvas.Screen,3_16_0_1,2022-03-01T10:32:31.708Z,,,,1,A,100.00200000000041,timeout,,,,55010.39999997616,55009.108,54909.106,54909.80000001192,54925.773,55025.775,,grey
,Reaction,canvas.Screen,3_16_0_2,2022-03-01T10:32:31.882Z,,,,1,A,155.02500001191947,response,,stim_detected,keydown(Space),55184.19999998808,55180.80000001192,55009.108,55010.69999998808,55025.775,55192.445,,grey
,Trial,flow.Sequence,3_16_0,2022-03-01T10:32:31.882Z,,,,1,A,2205.066000011924,completion,,,,55184.39999997616,55180.80000001192,52959.067,52971.10000002384,52975.734,55192.445,,grey
,Frame,canvas.Frame,3_16,2022-03-01T10:32:31.882Z,,,,1,A,2208.6659999761614,,,,,55184.60000002384,55184.39999997616,52959.067,52970.19999998808,52975.734,55192.445,,grey
,Fixation,canvas.Screen,3_17_0_0,2022-03-01T10:32:33.859Z,,,,1,A,1983.3729999999996,timeout,,,,57161.39999997616,57159.151,55175.778,55185.19999998808,55192.445,57175.818,,grey
,Stimulus,canvas.Screen,3_17_0_1,2022-03-01T10:32:33.959Z,,,,1,A,100.00200000000041,timeout,,,,57261.19999998808,57259.153,57159.151,57161.60000002384,57175.818,57275.82,,grey
,Reaction,canvas.Screen,3_17_0_2,2022-03-01T10:32:34.187Z,,,,1,A,208.98000001192122,response,,stim_detected,keydown(Space),57489,57484.80000001192,57259.153,57261.30000001192,57275.82,57492.491,,grey
,Trial,flow.Sequence,3_17_0,2022-03-01T10:32:34.188Z,,,,1,A,2292.355000011921,completion,,,,57489.60000002384,57484.80000001192,55175.778,55185.10000002384,55192.445,57492.491,,grey
,Frame,canvas.Frame,3_17,2022-03-01T10:32:34.188Z,,,,1,A,2297.155000023842,,,,,57489.80000001192,57489.60000002384,55175.778,55184.60000002384,55192.445,57492.491,,grey
,Fixation,canvas.Screen,3_18_0_0,2022-03-01T10:32:35.976Z,,,,1,A,1800.036,timeout,,,,59278.19999998808,59275.86,57475.824,57490.80000001192,57492.491,59292.527,,grey
,Stimulus,canvas.Screen,3_18_0_1,2022-03-01T10:32:36.076Z,,,,1,A,100.00200000000041,timeout,,,,59378.30000001192,59375.862,59275.86,59278.39999997616,59292.527,59392.529,,grey
,Reaction,canvas.Screen,3_18_0_2,2022-03-01T10:32:36.315Z,,,,1,A,219.97099999999773,response,,stim_detected,keydown(Space),59616.89999997616,59612.5,59375.862,59378.39999997616,59392.529,59625.867,,grey
,Trial,flow.Sequence,3_18_0,2022-03-01T10:32:36.315Z,,,,1,A,2120.008999999998,completion,,,,59617.30000001192,59612.5,57475.824,57490.80000001192,57492.491,59625.867,,grey
,Frame,canvas.Frame,3_18,2022-03-01T10:32:36.316Z,,,,1,A,2124.809000011919,,,,,59617.5,59617.30000001192,57475.824,57489.89999997616,57492.491,59625.867,,grey
,Fixation,canvas.Screen,3_19_0_0,2022-03-01T10:32:38.327Z,,,,0,V,2016.7070000000022,timeout,,,,61628.39999997616,61625.907,59609.2,59618.60000002384,59625.867,61642.574,,white
,Stimulus,canvas.Screen,3_19_0_1,2022-03-01T10:32:38.426Z,,,,0,V,100.00200000000041,timeout,,,,61727.89999997616,61725.909,61625.907,61628.69999998808,61642.574,61742.576,,white
,Reaction,canvas.Screen,3_19_0_2,2022-03-01T10:32:38.682Z,,,,0,V,236.92399999999907,response,,stim_detected,keydown(Space),61984,61979.5,61725.909,61728.10000002384,61742.576,61992.581,,white
,Trial,flow.Sequence,3_19_0,2022-03-01T10:32:38.682Z,,,,0,V,2353.6330000000016,completion,,,,61984.30000001192,61979.5,59609.2,59618.5,59625.867,61992.581,,white
,Frame,canvas.Frame,3_19,2022-03-01T10:32:38.683Z,,,,0,V,2358.5329999761598,,,,,61984.60000002384,61984.39999997616,59609.2,59617.60000002384,59625.867,61992.581,,white
,Fixation,canvas.Screen,3_20_0_0,2022-03-01T10:32:41.125Z,,,,0,V,2450.048999999999,timeout,,,,64427.19999998808,64425.963,61975.914,61985.60000002384,61992.581,64442.63,,white
,Stimulus,canvas.Screen,3_20_0_1,2022-03-01T10:32:41.227Z,,,,0,V,100.00200000000041,timeout,,,,64528.39999997616,64525.965,64425.963,64427.39999997616,64442.63,64542.632,,white
,Reaction,canvas.Screen,3_20_0_2,2022-03-01T10:32:42.727Z,,,,0,V,1500.0299999999988,timeout,,,,66028.39999997616,66025.995,64525.965,64528.60000002384,64542.632,66042.662,,white
,Trial,flow.Sequence,3_20_0,2022-03-01T10:32:42.727Z,,,,0,V,4033.413999999997,completion,,,,66028.60000002384,66025.995,61975.914,61985.5,61992.581,66042.662,,white
,Frame,canvas.Frame,3_20,2022-03-01T10:32:42.727Z,,,,0,V,4036.2190000119226,,,,,66028.80000001192,66028.80000001192,61975.914,61984.69999998808,61992.581,66059.329,,white
,Fixation,canvas.Screen,3_21_0_0,2022-03-01T10:32:44.376Z,,,,1,VA,1633.366000000009,timeout,,,,67677.89999997616,67676.028,66042.662,66029.69999998808,66059.329,67692.695,,white
,Stimulus,canvas.Screen,3_21_0_1,2022-03-01T10:32:44.477Z,,,,1,VA,100.00199999999313,timeout,,,,67778.69999998808,67776.03,67676.028,67678.19999998808,67692.695,67792.697,,white
,Reaction,canvas.Screen,3_21_0_2,2022-03-01T10:32:44.675Z,,,,1,VA,179.50299998807895,response,,stim_detected,keydown(Space),67977,67972.19999998808,67776.03,67778.89999997616,67792.697,67992.701,,white
,Trial,flow.Sequence,3_21_0,2022-03-01T10:32:44.676Z,,,,1,VA,1912.8709999880812,completion,,,,67977.30000001192,67972.19999998808,66042.662,66029.69999998808,66059.329,67992.701,,white
,Frame,canvas.Frame,3_21,2022-03-01T10:32:44.676Z,,,,1,VA,1918.0709999761602,,,,,67977.5,67977.39999997616,66042.662,66028.89999997616,66059.329,67992.701,,white
,Fixation,canvas.Screen,3_22_0_0,2022-03-01T10:32:46.626Z,,,,0,V,1950.0390000000043,timeout,,,,69927.60000002384,69926.073,67976.034,67978.60000002384,67992.701,69942.74,,white
,Stimulus,canvas.Screen,3_22_0_1,2022-03-01T10:32:46.727Z,,,,0,V,100.00199999999313,timeout,,,,70028.39999997616,70026.075,69926.073,69927.80000001192,69942.74,70042.742,,white
,Reaction,canvas.Screen,3_22_0_2,2022-03-01T10:32:46.943Z,,,,0,V,197.25800000000163,response,,stim_detected,keydown(Space),70244.39999997616,70240,70026.075,70028.69999998808,70042.742,70259.413,,white
,Trial,flow.Sequence,3_22_0,2022-03-01T10:32:46.943Z,,,,0,V,2247.298999999999,completion,,,,70244.60000002384,70240,67976.034,67978.5,67992.701,70259.413,,white
,Frame,canvas.Frame,3_22,2022-03-01T10:32:46.943Z,,,,0,V,2252.09900001192,,,,,70244.89999997616,70244.80000001192,67976.034,67977.69999998808,67992.701,70259.413,,white
,Fixation,canvas.Screen,3_23_0_0,2022-03-01T10:32:49.393Z,,,,1,VA,2450.048999999999,timeout,,,,72695,72692.795,70242.746,70245.89999997616,70259.413,72709.462,,white
,Stimulus,canvas.Screen,3_23_0_1,2022-03-01T10:32:49.493Z,,,,1,VA,100.00200000000768,timeout,,,,72794.69999998808,72792.797,72692.795,72695.19999998808,72709.462,72809.464,,white
,Reaction,canvas.Screen,3_23_0_2,2022-03-01T10:32:49.709Z,,,,1,VA,197.3360000119137,response,,stim_detected,keydown(Space),73011,73006.80000001192,72792.797,72794.89999997616,72809.464,73026.135,,white
,Trial,flow.Sequence,3_23_0,2022-03-01T10:32:49.710Z,,,,1,VA,2747.3870000119205,completion,,,,73011.30000001192,73006.80000001192,70242.746,70245.80000001192,70259.413,73026.135,,white
,Frame,canvas.Frame,3_23,2022-03-01T10:32:49.710Z,,,,1,VA,2751.8870000119205,,,,,73011.39999997616,73011.30000001192,70242.746,70245,70259.413,73026.135,,white
,Fixation,canvas.Screen,3_24_0_0,2022-03-01T10:32:51.276Z,,,,1,VA,1566.698000000004,timeout,,,,74577.39999997616,74576.166,73009.468,73012.69999998808,73026.135,74592.833,,white
,Stimulus,canvas.Screen,3_24_0_1,2022-03-01T10:32:51.377Z,,,,1,VA,100.00200000000768,timeout,,,,74678.39999997616,74676.168,74576.166,74577.69999998808,74592.833,74692.835,,white
,Reaction,canvas.Screen,3_24_0_2,2022-03-01T10:32:51.565Z,,,,1,VA,168.86499998807267,response,,stim_detected,keydown(Space),74866.10000002384,74861.69999998808,74676.168,74678.60000002384,74692.835,74876.172,,white
,Trial,flow.Sequence,3_24_0,2022-03-01T10:32:51.565Z,,,,1,VA,1835.5649999880843,completion,,,,74866.5,74861.69999998808,73009.468,73012.69999998808,73026.135,74876.172,,white
,Frame,canvas.Frame,3_24,2022-03-01T10:32:51.565Z,,,,1,VA,1840.3650000000052,,,,,74866.69999998808,74866.5,73009.468,73011.60000002384,73026.135,74876.172,,white
,Fixation,canvas.Screen,3_25_0_0,2022-03-01T10:32:53.760Z,,,,0,V,2200.0439999999944,timeout,,,,77061.69999998808,77059.549,74859.505,74867.69999998808,74876.172,77076.216,,white
,Stimulus,canvas.Screen,3_25_0_1,2022-03-01T10:32:53.860Z,,,,0,V,100.00199999999313,timeout,,,,77161.69999998808,77159.551,77059.549,77062,77076.216,77176.218,,white
,Reaction,canvas.Screen,3_25_0_2,2022-03-01T10:32:54.074Z,,,,0,V,194.4819999880856,response,,stim_detected,keydown(Space),77375.60000002384,77370.69999998808,77159.551,77162,77176.218,77392.889,,white
,Trial,flow.Sequence,3_25_0,2022-03-01T10:32:54.074Z,,,,0,V,2494.527999988073,completion,,,,77375.89999997616,77370.69999998808,74859.505,74867.60000002384,74876.172,77392.889,,white
,Frame,canvas.Frame,3_25,2022-03-01T10:32:54.075Z,,,,0,V,2499.727999976152,,,,,77376,77375.89999997616,74859.505,74866.69999998808,74876.172,77392.889,,white
,Fixation,canvas.Screen,3_26_0_0,2022-03-01T10:32:56.077Z,,,,0,V,2000.0400000000081,timeout,,,,79378,79376.262,77376.222,77377.10000002384,77392.889,79392.929,,white
,Stimulus,canvas.Screen,3_26_0_1,2022-03-01T10:32:56.177Z,,,,0,V,100.00199999999313,timeout,,,,79478.5,79476.264,79376.262,79378.19999998808,79392.929,79492.931,,white
,Reaction,canvas.Screen,3_26_0_2,2022-03-01T10:32:56.385Z,,,,0,V,188.669000023845,response,,stim_detected,keydown(Space),79686.10000002384,79681.60000002384,79476.264,79478.80000001192,79492.931,79692.935,,white
,Trial,flow.Sequence,3_26_0,2022-03-01T10:32:56.385Z,,,,0,V,2288.7110000238463,completion,,,,79686.39999997616,79681.60000002384,77376.222,77376.89999997616,77392.889,79692.935,,white
,Frame,canvas.Frame,3_26,2022-03-01T10:32:56.385Z,,,,0,V,2293.6110000000044,,,,,79686.60000002384,79686.5,77376.222,77376.10000002384,77392.889,79692.935,,white
,Fixation,canvas.Screen,3_27_0_0,2022-03-01T10:32:58.176Z,,,,0,V,1800.0360000000073,timeout,,,,81477.80000001192,81476.304,79676.268,79687.60000002384,79692.935,81492.971,,white
,Stimulus,canvas.Screen,3_27_0_1,2022-03-01T10:32:58.277Z,,,,0,V,100.00199999999313,timeout,,,,81578.19999998808,81576.306,81476.304,81478,81492.971,81592.973,,white
,Reaction,canvas.Screen,3_27_0_2,2022-03-01T10:32:58.480Z,,,,0,V,184.62700002384372,response,,stim_detected,keydown(Space),81781.69999998808,81777.60000002384,81576.306,81578.5,81592.973,81792.977,,white
,Trial,flow.Sequence,3_27_0,2022-03-01T10:32:58.481Z,,,,0,V,2084.665000023844,completion,,,,81782.10000002384,81777.60000002384,79676.268,79687.60000002384,79692.935,81792.977,,white
,Frame,canvas.Frame,3_27,2022-03-01T10:32:58.481Z,,,,0,V,2089.2649999880814,,,,,81782.30000001192,81782.19999998808,79676.268,79686.69999998808,79692.935,81792.977,,white
,Fixation,canvas.Screen,3_28_0_0,2022-03-01T10:33:00.627Z,,,,1,VA,2150.043000000005,timeout,,,,83928.60000002384,83926.353,81776.31,81783.60000002384,81792.977,83943.02,,white
,Stimulus,canvas.Screen,3_28_0_1,2022-03-01T10:33:00.727Z,,,,1,VA,100.00199999999313,timeout,,,,84027.89999997616,84026.355,83926.353,83928.80000001192,83943.02,84043.022,,white
,Reaction,canvas.Screen,3_28_0_2,2022-03-01T10:33:00.918Z,,,,1,VA,171.37799997616094,response,,stim_detected,keydown(Space),84218.89999997616,84214.39999997616,84026.355,84028.10000002384,84043.022,84226.359,,white
,Trial,flow.Sequence,3_28_0,2022-03-01T10:33:00.918Z,,,,1,VA,2421.422999976159,completion,,,,84219.30000001192,84214.39999997616,81776.31,81783.39999997616,81792.977,84226.359,,white
,Frame,canvas.Frame,3_28,2022-03-01T10:33:00.918Z,,,,1,VA,2426.323000011922,,,,,84219.39999997616,84219.30000001192,81776.31,81782.39999997616,81792.977,84226.359,,white
,Fixation,canvas.Screen,3_29_0_0,2022-03-01T10:33:02.894Z,,,,1,VA,1983.3730000000069,timeout,,,,86195.19999998808,86193.065,84209.692,84220.39999997616,84226.359,86209.732,,white
,Stimulus,canvas.Screen,3_29_0_1,2022-03-01T10:33:02.993Z,,,,1,VA,100.00199999999313,timeout,,,,86294.5,86293.067,86193.065,86195.39999997616,86209.732,86309.734,,white
,Reaction,canvas.Screen,3_29_0_2,2022-03-01T10:33:03.178Z,,,,1,VA,165.5660000119242,response,,stim_detected,keydown(Space),86479.80000001192,86475.30000001192,86293.067,86294.69999998808,86309.734,86493.071,,white
,Trial,flow.Sequence,3_29_0,2022-03-01T10:33:03.179Z,,,,1,VA,2248.941000011924,completion,,,,86480.10000002384,86475.30000001192,84209.692,84220.39999997616,84226.359,86493.071,,white
,Frame,canvas.Frame,3_29,2022-03-01T10:33:03.179Z,,,,1,VA,2253.741000023845,,,,,86480.30000001192,86480.10000002384,84209.692,84219.60000002384,84226.359,86493.071,,white
,Fixation,canvas.Screen,3_30_0_0,2022-03-01T10:33:05.443Z,,,,1,VA,2283.379000000001,timeout,,,,88744.19999998808,88743.116,86476.404,86481.19999998808,86493.071,88776.45,,white
,Stimulus,canvas.Screen,3_30_0_1,2022-03-01T10:33:05.560Z,,,,1,VA,100.00200000000768,timeout,,,,88861,88859.785,88743.116,88744.39999997616,88776.45,88876.452,,white
,Reaction,canvas.Screen,3_30_0_2,2022-03-01T10:33:05.755Z,,,,1,VA,175.44799997615337,response,,stim_detected,keydown(Space),89056.69999998808,89051.89999997616,88859.785,88861.19999998808,88876.452,89059.789,,white
,Trial,flow.Sequence,3_30_0,2022-03-01T10:33:05.756Z,,,,1,VA,2558.828999976162,completion,,,,89057.10000002384,89051.89999997616,86476.404,86481.10000002384,86493.071,89059.789,,white
,Frame,canvas.Frame,3_30,2022-03-01T10:33:05.756Z,,,,1,VA,2564.128999988083,,,,,89057.30000001192,89057.19999998808,86476.404,86480.39999997616,86493.071,89059.789,,white
,Fixation,canvas.Screen,3_31_0_0,2022-03-01T10:33:07.245Z,,,,0,V,1500.0299999999988,timeout,,,,90545.80000001192,90543.152,89043.122,89058.39999997616,89059.789,90559.819,,white
,Stimulus,canvas.Screen,3_31_0_1,2022-03-01T10:33:07.343Z,,,,0,V,100.00199999999313,timeout,,,,90644.30000001192,90643.154,90543.152,90546,90559.819,90659.821,,white
,Reaction,canvas.Screen,3_31_0_2,2022-03-01T10:33:07.577Z,,,,0,V,214.17900000000373,response,,stim_detected,keydown(Space),90878.30000001192,90874,90643.154,90644.5,90659.821,90893.159,,white
,Trial,flow.Sequence,3_31_0,2022-03-01T10:33:07.578Z,,,,0,V,1814.2109999999957,completion,,,,90878.69999998808,90874,89043.122,89058.30000001192,89059.789,90893.159,,white
,Frame,canvas.Frame,3_31,2022-03-01T10:33:07.578Z,,,,0,V,1818.9109999880748,,,,,90878.89999997616,90878.69999998808,89043.122,89057.39999997616,89059.789,90893.159,,white
,Fixation,canvas.Screen,3_32_0_0,2022-03-01T10:33:09.694Z,,,,0,V,2116.7090000000026,timeout,,,,92995.30000001192,92993.201,90876.492,90880.10000002384,90893.159,93009.868,,white
,Stimulus,canvas.Screen,3_32_0_1,2022-03-01T10:33:09.794Z,,,,0,V,100.00199999999313,timeout,,,,93095.19999998808,93093.203,92993.201,92995.5,93009.868,93109.87,,white
,Reaction,canvas.Screen,3_32_0_2,2022-03-01T10:33:10.014Z,,,,0,V,201.0299999761628,response,,stim_detected,keydown(Space),93315.30000001192,93310.89999997616,93093.203,93095.39999997616,93109.87,93326.541,,white
,Trial,flow.Sequence,3_32_0,2022-03-01T10:33:10.015Z,,,,0,V,2417.7409999761585,completion,,,,93315.60000002384,93310.89999997616,90876.492,90880.10000002384,90893.159,93326.541,,white
,Frame,canvas.Frame,3_32,2022-03-01T10:33:10.015Z,,,,0,V,2422.5409999880794,,,,,93315.80000001192,93315.69999998808,90876.492,90879,90893.159,93326.541,,white
,Fixation,canvas.Screen,3_33_0_0,2022-03-01T10:33:12.494Z,,,,0,V,2483.3830000000016,timeout,,,,95794.5,95793.257,93309.874,93316.80000001192,93326.541,95809.924,,white
,Stimulus,canvas.Screen,3_33_0_1,2022-03-01T10:33:12.594Z,,,,0,V,100.00200000000768,timeout,,,,95895.5,95893.259,95793.257,95794.80000001192,95809.924,95909.926,,white
,Reaction,canvas.Screen,3_33_0_2,2022-03-01T10:33:12.817Z,,,,0,V,203.6740000238351,response,,stim_detected,keydown(Space),96118,96113.60000002384,95893.259,95895.69999998808,95909.926,96126.597,,white
,Trial,flow.Sequence,3_33_0,2022-03-01T10:33:12.817Z,,,,0,V,2787.0590000238444,completion,,,,96118.30000001192,96113.60000002384,93309.874,93316.69999998808,93326.541,96126.597,,white
,Frame,canvas.Frame,3_33,2022-03-01T10:33:12.817Z,,,,0,V,2791.8589999761607,,,,,96118.5,96118.39999997616,93309.874,93315.89999997616,93326.541,96126.597,,white
,Fixation,canvas.Screen,3_34_0_0,2022-03-01T10:33:15.210Z,,,,1,A,2400.04800000001,timeout,,,,98511.30000001192,98509.978,96109.93,96119.69999998808,96126.597,98526.645,,grey
,Stimulus,canvas.Screen,3_34_0_1,2022-03-01T10:33:15.311Z,,,,1,A,100.00199999999313,timeout,,,,98612.19999998808,98609.98,98509.978,98511.5,98526.645,98626.647,,grey
,Reaction,canvas.Screen,3_34_0_2,2022-03-01T10:33:15.699Z,,,,1,A,368.8530000000028,response,,stim_detected,keydown(Space),98999.69999998808,98995.5,98609.98,98612.39999997616,98626.647,99009.988,,grey
,Trial,flow.Sequence,3_34_0,2022-03-01T10:33:15.699Z,,,,1,A,2868.9030000000057,completion,,,,99000,98995.5,96109.93,96119.60000002384,96126.597,99009.988,,grey
,Frame,canvas.Frame,3_34,2022-03-01T10:33:15.699Z,,,,1,A,2873.4030000000057,,,,,99000.19999998808,99000,96109.93,96118.60000002384,96126.597,99009.988,,grey
,Fixation,canvas.Screen,3_35_0_0,2022-03-01T10:33:17.477Z,,,,0,V,1783.369000000006,timeout,,,,100777.89999997616,100776.69,98993.321,99001.30000001192,99009.988,100793.357,,white
,Stimulus,canvas.Screen,3_35_0_1,2022-03-01T10:33:17.578Z,,,,0,V,100.00199999999313,timeout,,,,100878.39999997616,100876.692,100776.69,100778.19999998808,100793.357,100893.359,,white
,Reaction,canvas.Screen,3_35_0_2,2022-03-01T10:33:17.816Z,,,,0,V,218.9410000119242,response,,stim_detected,keydown(Space),101117,101112.30000001192,100876.692,100878.69999998808,100893.359,101126.697,,white
,Trial,flow.Sequence,3_35_0,2022-03-01T10:33:17.816Z,,,,0,V,2102.3120000119234,completion,,,,101117.30000001192,101112.30000001192,98993.321,99001.30000001192,99009.988,101126.697,,white
,Frame,canvas.Frame,3_35,2022-03-01T10:33:17.817Z,,,,0,V,2107.3120000119234,,,,,101117.5,101117.30000001192,98993.321,99000.30000001192,99009.988,101126.697,,white
,Fixation,canvas.Screen,3_36_0_0,2022-03-01T10:33:20.162Z,,,,1,A,2350.047000000006,timeout,,,,103462.30000001192,103460.077,101110.03,101118.60000002384,101126.697,103476.744,,grey
,Stimulus,canvas.Screen,3_36_0_1,2022-03-01T10:33:20.260Z,,,,1,A,100.00199999999313,timeout,,,,103561.19999998808,103560.079,103460.077,103462.60000002384,103476.744,103576.746,,grey
,Reaction,canvas.Screen,3_36_0_2,2022-03-01T10:33:20.632Z,,,,1,A,351.55400001192174,response,,stim_detected,keydown(Space),103933.10000002384,103928.30000001192,103560.079,103561.30000001192,103576.746,103943.42,,grey
,Trial,flow.Sequence,3_36_0,2022-03-01T10:33:20.633Z,,,,1,A,2801.603000011921,completion,,,,103933.39999997616,103928.30000001192,101110.03,101118.5,101126.697,103943.42,,grey
,Frame,canvas.Frame,3_36,2022-03-01T10:33:20.633Z,,,,1,A,2806.803,,,,,103933.60000002384,103933.5,101110.03,101117.60000002384,101126.697,103943.42,,grey
,Fixation,canvas.Screen,3_37_0_0,2022-03-01T10:33:22.144Z,,,,1,A,1516.6970000000001,timeout,,,,105445.10000002384,105443.45,103926.753,103934.60000002384,103943.42,105460.117,,grey
,Stimulus,canvas.Screen,3_37_0_1,2022-03-01T10:33:22.245Z,,,,1,A,100.00200000000768,timeout,,,,105545.69999998808,105543.452,105443.45,105445.30000001192,105460.117,105560.119,,grey
,Reaction,canvas.Screen,3_37_0_2,2022-03-01T10:33:22.521Z,,,,1,A,257.080999988073,response,,stim_detected,keydown(Space),105821.60000002384,105817.19999998808,105543.452,105545.89999997616,105560.119,105826.791,,grey
,Trial,flow.Sequence,3_37_0,2022-03-01T10:33:22.521Z,,,,1,A,1873.7799999880808,completion,,,,105822,105817.19999998808,103926.753,103934.60000002384,103943.42,105826.791,,grey
,Frame,canvas.Frame,3_37,2022-03-01T10:33:22.521Z,,,,1,A,1878.6800000238436,,,,,105822.19999998808,105822.10000002384,103926.753,103933.80000001192,103943.42,105826.791,,grey
,Fixation,canvas.Screen,3_38_0_0,2022-03-01T10:33:24.895Z,,,,1,VA,2383.3810000000085,timeout,,,,108195.39999997616,108193.505,105810.124,105823.19999998808,105826.791,108210.172,,white
,Stimulus,canvas.Screen,3_38_0_1,2022-03-01T10:33:24.995Z,,,,1,VA,100.00199999999313,timeout,,,,108295.5,108293.507,108193.505,108195.60000002384,108210.172,108310.174,,white
,Reaction,canvas.Screen,3_38_0_2,2022-03-01T10:33:25.222Z,,,,1,VA,207.82600000000093,response,,stim_detected,keydown(Space),108522.5,108518,108293.507,108295.69999998808,108310.174,108526.845,,white
,Trial,flow.Sequence,3_38_0,2022-03-01T10:33:25.222Z,,,,1,VA,2691.2090000000026,completion,,,,108522.80000001192,108518,105810.124,105823.10000002384,105826.791,108526.845,,white
,Frame,canvas.Frame,3_38,2022-03-01T10:33:25.222Z,,,,1,VA,2696.1089999761607,,,,,108523,108522.89999997616,105810.124,105822.30000001192,105826.791,108526.845,,white
,Fixation,canvas.Screen,3_39_0_0,2022-03-01T10:33:27.612Z,,,,1,VA,2400.047999999995,timeout,,,,110912.30000001192,110910.226,108510.178,108524,108526.845,110926.893,,white
,Stimulus,canvas.Screen,3_39_0_1,2022-03-01T10:33:27.712Z,,,,1,VA,100.00200000000768,timeout,,,,111012.39999997616,111010.228,110910.226,110912.80000001192,110926.893,111026.895,,white
,Reaction,canvas.Screen,3_39_0_2,2022-03-01T10:33:27.892Z,,,,1,VA,161.00499997615407,response,,stim_detected,keydown(Space),111192.60000002384,111187.89999997616,111010.228,111013.5,111026.895,111210.232,,white
,Trial,flow.Sequence,3_39_0,2022-03-01T10:33:27.892Z,,,,1,VA,2661.054999976157,completion,,,,111193,111187.89999997616,108510.178,108523.89999997616,108526.845,111210.232,,white
,Frame,canvas.Frame,3_39,2022-03-01T10:33:27.893Z,,,,1,VA,2666.2550000238407,,,,,111193.19999998808,111193.10000002384,108510.178,108523.10000002384,108526.845,111210.232,,white
,Fixation,canvas.Screen,3_40_0_0,2022-03-01T10:33:30.163Z,,,,1,VA,2266.7119999999995,timeout,,,,113463.10000002384,113460.277,111193.565,111194.30000001192,111210.232,113476.944,,white
,Stimulus,canvas.Screen,3_40_0_1,2022-03-01T10:33:30.262Z,,,,1,VA,100.00199999999313,timeout,,,,113562.19999998808,113560.279,113460.277,113463.30000001192,113476.944,113576.946,,white
,Reaction,canvas.Screen,3_40_0_2,2022-03-01T10:33:30.448Z,,,,1,VA,166.7539999880828,response,,stim_detected,keydown(Space),113748.30000001192,113743.69999998808,113560.279,113562.30000001192,113576.946,113760.283,,white
,Trial,flow.Sequence,3_40_0,2022-03-01T10:33:30.448Z,,,,1,VA,2533.4679999880755,completion,,,,113748.5,113743.69999998808,111193.565,111194.10000002384,111210.232,113760.283,,white
,Frame,canvas.Frame,3_40,2022-03-01T10:33:30.448Z,,,,1,VA,2538.3680000238382,,,,,113748.69999998808,113748.60000002384,111193.565,111193.30000001192,111210.232,113760.283,,white
,Fixation,canvas.Screen,3_41_0_0,2022-03-01T10:33:31.962Z,,,,0,V,1516.6970000000001,timeout,,,,115262.80000001192,115260.313,113743.616,113749.69999998808,113760.283,115276.98,,white
,Stimulus,canvas.Screen,3_41_0_1,2022-03-01T10:33:32.061Z,,,,0,V,100.00200000000768,timeout,,,,115362,115360.315,115260.313,115263,115276.98,115376.982,,white
,Reaction,canvas.Screen,3_41_0_2,2022-03-01T10:33:32.335Z,,,,0,V,253.71799998807546,response,,stim_detected,keydown(Space),115635.19999998808,115630.69999998808,115360.315,115362.10000002384,115376.982,115643.654,,white
,Trial,flow.Sequence,3_41_0,2022-03-01T10:33:32.335Z,,,,0,V,1870.4169999880833,completion,,,,115635.39999997616,115630.69999998808,113743.616,113749.69999998808,113760.283,115643.654,,white
,Frame,canvas.Frame,3_41,2022-03-01T10:33:32.335Z,,,,0,V,1875.317000023846,,,,,115635.60000002384,115635.60000002384,113743.616,113748.80000001192,113760.283,115643.654,,white
,Fixation,canvas.Screen,3_42_0_0,2022-03-01T10:33:33.845Z,,,,1,A,1516.6970000000001,timeout,,,,117145.30000001192,117143.684,115626.987,115636.60000002384,115643.654,117160.351,,grey
,Stimulus,canvas.Screen,3_42_0_1,2022-03-01T10:33:33.946Z,,,,1,A,100.00200000000768,timeout,,,,117246,117243.686,117143.684,117145.5,117160.351,117260.353,,grey
,Reaction,canvas.Screen,3_42_0_2,2022-03-01T10:33:34.232Z,,,,1,A,267.1469999999972,response,,stim_detected,keydown(Space),117532.10000002384,117527.5,117243.686,117246.19999998808,117260.353,117560.359,,grey
,Trial,flow.Sequence,3_42_0,2022-03-01T10:33:34.232Z,,,,1,A,1883.846000000005,completion,,,,117532.30000001192,117527.5,115626.987,115636.5,115643.654,117560.359,,grey
,Frame,canvas.Frame,3_42,2022-03-01T10:33:34.232Z,,,,1,A,1888.846000000005,,,,,117532.60000002384,117532.5,115626.987,115635.80000001192,115643.654,117560.359,,grey
,Fixation,canvas.Screen,3_43_0_0,2022-03-01T10:33:36.629Z,,,,1,A,2383.3810000000085,timeout,,,,119928.89999997616,119927.073,117527.025,117533.5,117560.359,119943.74,,grey
,Stimulus,canvas.Screen,3_43_0_1,2022-03-01T10:33:36.729Z,,,,1,A,100.00199999999313,timeout,,,,120029.30000001192,120027.075,119927.073,119929.10000002384,119943.74,120043.742,,grey
,Reaction,canvas.Screen,3_43_0_2,2022-03-01T10:33:37.003Z,,,,1,A,255.75800000000163,response,,stim_detected,keydown(Space),120303.69999998808,120299.5,120027.075,120029.5,120043.742,120310.414,,grey
,Trial,flow.Sequence,3_43_0,2022-03-01T10:33:37.004Z,,,,1,A,2739.1410000000033,completion,,,,120304.10000002384,120299.5,117527.025,117533.5,117560.359,120310.414,,grey
,Frame,canvas.Frame,3_43,2022-03-01T10:33:37.004Z,,,,1,A,2743.741000023845,,,,,120304.30000001192,120304.10000002384,117527.025,117532.69999998808,117560.359,120310.414,,grey
,Fixation,canvas.Screen,3_44_0_0,2022-03-01T10:33:39.011Z,,,,0,V,2016.7069999999949,timeout,,,,122311.80000001192,122310.454,120293.747,120305.5,120310.414,122327.121,,white
,Stimulus,canvas.Screen,3_44_0_1,2022-03-01T10:33:39.113Z,,,,0,V,100.00200000000768,timeout,,,,122413.30000001192,122410.456,122310.454,122311.89999997616,122327.121,122427.123,,white
,Reaction,canvas.Screen,3_44_0_2,2022-03-01T10:33:39.331Z,,,,0,V,199.27699997615127,response,,stim_detected,keydown(Space),122631.39999997616,122626.39999997616,122410.456,122413.5,122427.123,122643.794,,white
,Trial,flow.Sequence,3_44_0,2022-03-01T10:33:39.331Z,,,,0,V,2315.985999976154,completion,,,,122631.69999998808,122626.39999997616,120293.747,120305.5,120310.414,122643.794,,white
,Frame,canvas.Frame,3_44,2022-03-01T10:33:39.332Z,,,,0,V,2321.3860000119166,,,,,122631.89999997616,122631.80000001192,120293.747,120304.39999997616,120310.414,122643.794,,white
,Fixation,canvas.Screen,3_45_0_0,2022-03-01T10:33:41.329Z,,,,1,A,2000.0400000000081,timeout,,,,124629.60000002384,124627.167,122627.127,122633,122643.794,124643.834,,grey
,Stimulus,canvas.Screen,3_45_0_1,2022-03-01T10:33:41.429Z,,,,1,A,100.00199999999313,timeout,,,,124729.39999997616,124727.169,124627.167,124629.69999998808,124643.834,124743.836,,grey
,Reaction,canvas.Screen,3_45_0_2,2022-03-01T10:33:41.699Z,,,,1,A,250.26400002384617,response,,stim_detected,keydown(Space),124998.80000001192,124994.10000002384,124727.169,124729.60000002384,124743.836,125010.508,,grey
,Trial,flow.Sequence,3_45_0,2022-03-01T10:33:41.699Z,,,,1,A,2350.3060000238474,completion,,,,124999.19999998808,124994.10000002384,122627.127,122632.89999997616,122643.794,125010.508,,grey
,Frame,canvas.Frame,3_45,2022-03-01T10:33:41.699Z,,,,1,A,2355.4059999880847,,,,,124999.39999997616,124999.19999998808,122627.127,122632,122643.794,125010.508,,grey
,Fixation,canvas.Screen,3_46_0_0,2022-03-01T10:33:43.463Z,,,,1,A,1766.7020000000048,timeout,,,,126763.19999998808,126760.543,124993.841,125000.39999997616,125010.508,126777.21,,grey
,Stimulus,canvas.Screen,3_46_0_1,2022-03-01T10:33:43.563Z,,,,1,A,100.00199999999313,timeout,,,,126862.69999998808,126860.545,126760.543,126763.39999997616,126777.21,126877.212,,grey
,Reaction,canvas.Screen,3_46_0_2,2022-03-01T10:33:43.821Z,,,,1,A,239.88800002384232,response,,stim_detected,keydown(Space),127121.60000002384,127117.10000002384,126860.545,126863,126877.212,127127.217,,grey
,Trial,flow.Sequence,3_46_0,2022-03-01T10:33:43.822Z,,,,1,A,2106.5920000238402,completion,,,,127121.80000001192,127117.10000002384,124993.841,125000.30000001192,125010.508,127127.217,,grey
,Frame,canvas.Frame,3_46,2022-03-01T10:33:43.822Z,,,,1,A,2111.3919999761565,,,,,127122.10000002384,127121.89999997616,124993.841,124999.5,125010.508,127127.217,,grey
,Fixation,canvas.Screen,3_47_0_0,2022-03-01T10:33:45.745Z,,,,1,VA,1933.372000000003,timeout,,,,129045.60000002384,129043.922,127110.55,127123.19999998808,127127.217,129060.589,,white
,Stimulus,canvas.Screen,3_47_0_1,2022-03-01T10:33:45.846Z,,,,1,VA,100.00199999999313,timeout,,,,129146,129143.924,129043.922,129045.69999998808,129060.589,129160.591,,white
,Reaction,canvas.Screen,3_47_0_2,2022-03-01T10:33:46.052Z,,,,1,VA,187.3089999761578,response,,stim_detected,keydown(Space),129352.30000001192,129347.89999997616,129143.924,129146.39999997616,129160.591,129360.595,,white
,Trial,flow.Sequence,3_47_0,2022-03-01T10:33:46.053Z,,,,1,VA,2220.682999976154,completion,,,,129352.69999998808,129347.89999997616,127110.55,127123.10000002384,127127.217,129360.595,,white
,Frame,canvas.Frame,3_47,2022-03-01T10:33:46.053Z,,,,1,VA,2225.482999988075,,,,,129352.89999997616,129352.69999998808,127110.55,127122.19999998808,127127.217,129360.595,,white
,Fixation,canvas.Screen,3_48_0_0,2022-03-01T10:33:47.762Z,,,,1,VA,1716.701000000001,timeout,,,,131062.5,131060.629,129343.928,129353.89999997616,129360.595,131077.296,,white
,Stimulus,canvas.Screen,3_48_0_1,2022-03-01T10:33:47.863Z,,,,1,VA,100.00200000000768,timeout,,,,131163.10000002384,131160.631,131060.629,131062.69999998808,131077.296,131177.298,,white
,Reaction,canvas.Screen,3_48_0_2,2022-03-01T10:33:48.034Z,,,,1,VA,152.4019999880693,response,,stim_detected,keydown(Space),131333.89999997616,131329.69999998808,131160.631,131163.39999997616,131177.298,131343.968,,white
,Trial,flow.Sequence,3_48_0,2022-03-01T10:33:48.034Z,,,,1,VA,1969.104999988078,completion,,,,131334.19999998808,131329.69999998808,129343.928,129353.89999997616,129360.595,131343.968,,white
,Frame,canvas.Frame,3_48,2022-03-01T10:33:48.034Z,,,,1,VA,1973.7050000119198,,,,,131334.5,131334.30000001192,129343.928,129353,129360.595,131343.968,,white
,Fixation,canvas.Screen,3_49_0_0,2022-03-01T10:33:50.463Z,,,,0,V,2433.3820000000123,timeout,,,,133763.30000001192,133760.683,131327.301,131335.5,131343.968,133777.35,,white
,Stimulus,canvas.Screen,3_49_0_1,2022-03-01T10:33:50.564Z,,,,0,V,100.00200000000768,timeout,,,,133864.10000002384,133860.685,133760.683,133763.5,133777.35,133877.352,,white
,Reaction,canvas.Screen,3_49_0_2,2022-03-01T10:33:50.789Z,,,,0,V,207.34799998806557,response,,stim_detected,keydown(Space),134089.39999997616,134084.69999998808,133860.685,133864.39999997616,133877.352,134094.023,,white
,Trial,flow.Sequence,3_49_0,2022-03-01T10:33:50.790Z,,,,0,V,2740.7319999880856,completion,,,,134089.80000001192,134084.69999998808,131327.301,131335.30000001192,131343.968,134094.023,,white
,Frame,canvas.Frame,3_49,2022-03-01T10:33:50.790Z,,,,0,V,2745.9319999761647,,,,,134090,134089.89999997616,131327.301,131334.5,131343.968,134094.023,,white
,Fixation,canvas.Screen,3_50_0_0,2022-03-01T10:33:52.830Z,,,,1,A,2050.0410000000265,timeout,,,,136129.39999997616,136127.397,134077.356,134091.10000002384,134094.023,136144.064,,grey
,Stimulus,canvas.Screen,3_50_0_1,2022-03-01T10:33:52.929Z,,,,1,A,100.00199999997858,timeout,,,,136229.39999997616,136227.399,136127.397,136129.69999998808,136144.064,136244.066,,grey
,Reaction,canvas.Screen,3_50_0_2,2022-03-01T10:33:53.202Z,,,,1,A,253.53400002385024,response,,stim_detected,keydown(Space),136502.10000002384,136497.60000002384,136227.399,136229.5,136244.066,136510.738,,grey
,Trial,flow.Sequence,3_50_0,2022-03-01T10:33:53.203Z,,,,1,A,2403.5770000238554,completion,,,,136502.39999997616,136497.60000002384,134077.356,134090.89999997616,134094.023,136510.738,,grey
,Frame,canvas.Frame,3_50,2022-03-01T10:33:53.203Z,,,,1,A,2408.4770000000135,,,,,136502.60000002384,136502.5,134077.356,134090.10000002384,134094.023,136510.738,,grey
,Fixation,canvas.Screen,3_51_0_0,2022-03-01T10:33:55.480Z,,,,0,V,2283.3789999999863,timeout,,,,138779.80000001192,138777.45,136494.071,136503.5,136510.738,138794.117,,white
,Stimulus,canvas.Screen,3_51_0_1,2022-03-01T10:33:55.579Z,,,,0,V,100.00200000000768,timeout,,,,138879.19999998808,138877.452,138777.45,138780.10000002384,138794.117,138894.119,,white
,Reaction,canvas.Screen,3_51_0_2,2022-03-01T10:33:55.822Z,,,,0,V,223.18100001191488,response,,stim_detected,keydown(Space),139121.5,139117.30000001192,138877.452,138879.5,138894.119,139127.457,,white
,Trial,flow.Sequence,3_51_0,2022-03-01T10:33:55.822Z,,,,0,V,2606.562000011909,completion,,,,139121.89999997616,139117.30000001192,136494.071,136503.5,136510.738,139127.457,,white
,Frame,canvas.Frame,3_51,2022-03-01T10:33:55.822Z,,,,0,V,2611.161999976146,,,,,139122.10000002384,139121.89999997616,136494.071,136502.69999998808,136510.738,139127.457,,white
,Fixation,canvas.Screen,3_52_0_0,2022-03-01T10:33:58.247Z,,,,0,V,2433.3820000000123,timeout,,,,141546.5,141544.172,139110.79,139123.10000002384,139127.457,141560.839,,white
,Stimulus,canvas.Screen,3_52_0_1,2022-03-01T10:33:58.346Z,,,,0,V,100.00199999997858,timeout,,,,141645.30000001192,141644.174,141544.172,141546.69999998808,141560.839,141660.841,,white
,Reaction,canvas.Screen,3_52_0_2,2022-03-01T10:33:58.566Z,,,,0,V,200.45900001193513,response,,stim_detected,keydown(Space),141866.10000002384,141861.30000001192,141644.174,141645.39999997616,141660.841,141877.512,,white
,Trial,flow.Sequence,3_52_0,2022-03-01T10:33:58.567Z,,,,0,V,2733.843000011926,completion,,,,141866.5,141861.30000001192,139110.79,139123.10000002384,139127.457,141877.512,,white
,Frame,canvas.Frame,3_52,2022-03-01T10:33:58.567Z,,,,0,V,2739.043000000005,,,,,141866.60000002384,141866.5,139110.79,139122.10000002384,139127.457,141877.512,,white
,Fixation,canvas.Screen,3_53_0_0,2022-03-01T10:34:00.713Z,,,,0,V,2150.043000000005,timeout,,,,144012.60000002384,144010.888,141860.845,141867.69999998808,141877.512,144027.555,,white
,Stimulus,canvas.Screen,3_53_0_1,2022-03-01T10:34:00.813Z,,,,0,V,100.00200000000768,timeout,,,,144112.19999998808,144110.89,144010.888,144012.80000001192,144027.555,144127.557,,white
,Reaction,canvas.Screen,3_53_0_2,2022-03-01T10:34:01.039Z,,,,0,V,206.54300002384116,response,,stim_detected,keydown(Space),144338.89999997616,144334.10000002384,144110.89,144112.39999997616,144127.557,144344.228,,white
,Trial,flow.Sequence,3_53_0,2022-03-01T10:34:01.040Z,,,,0,V,2456.588000023854,completion,,,,144339.19999998808,144334.10000002384,141860.845,141867.60000002384,141877.512,144344.228,,white
,Frame,canvas.Frame,3_53,2022-03-01T10:34:01.040Z,,,,0,V,2461.687999988091,,,,,144339.39999997616,144339.19999998808,141860.845,141866.69999998808,141877.512,144344.228,,white
,Fixation,canvas.Screen,3_54_0_0,2022-03-01T10:34:03.181Z,,,,1,A,2150.043000000005,timeout,,,,146480.19999998808,146477.604,144327.561,144340.5,144344.228,146494.271,,grey
,Stimulus,canvas.Screen,3_54_0_1,2022-03-01T10:34:03.279Z,,,,1,A,100.00199999997858,timeout,,,,146579.10000002384,146577.606,146477.604,146480.5,146494.271,146594.273,,grey
,Reaction,canvas.Screen,3_54_0_2,2022-03-01T10:34:04.780Z,,,,1,A,1500.030000000028,timeout,,,,148079.5,148077.636,146577.606,146579.19999998808,146594.273,148094.303,,grey
,Trial,flow.Sequence,3_54_0,2022-03-01T10:34:04.780Z,,,,1,A,3733.407999999996,completion,,,,148079.80000001192,148077.636,144327.561,144340.39999997616,144344.228,148094.303,,grey
,Frame,canvas.Frame,3_54,2022-03-01T10:34:04.780Z,,,,1,A,3735.572000011918,,,,,148080,148079.80000001192,144327.561,144339.5,144344.228,148110.97,,grey
,Fixation,canvas.Screen,3_55_0_0,2022-03-01T10:34:06.997Z,,,,1,A,2200.0439999999944,timeout,,,,150296.5,150294.347,148094.303,148080.89999997616,148110.97,150311.014,,grey
,Stimulus,canvas.Screen,3_55_0_1,2022-03-01T10:34:07.097Z,,,,1,A,100.00200000000768,timeout,,,,150396.19999998808,150394.349,150294.347,150296.69999998808,150311.014,150411.016,,grey
,Reaction,canvas.Screen,3_55_0_2,2022-03-01T10:34:07.442Z,,,,1,A,325.6839999880758,response,,stim_detected,keydown(Space),150741.39999997616,150736.69999998808,150394.349,150396.5,150411.016,150744.356,,grey
,Trial,flow.Sequence,3_55_0,2022-03-01T10:34:07.442Z,,,,1,A,2625.729999988078,completion,,,,150741.69999998808,150736.69999998808,148094.303,148080.80000001192,148110.97,150744.356,,grey
,Frame,canvas.Frame,3_55,2022-03-01T10:34:07.442Z,,,,1,A,2630.729999988078,,,,,150741.80000001192,150741.69999998808,148094.303,148080,148110.97,150744.356,,grey
,Fixation,canvas.Screen,3_56_0_0,2022-03-01T10:34:09.314Z,,,,1,A,1883.3710000000137,timeout,,,,152613.10000002384,152611.06,150727.689,150742.69999998808,150744.356,152627.727,,grey
,Stimulus,canvas.Screen,3_56_0_1,2022-03-01T10:34:09.413Z,,,,1,A,100.00199999997858,timeout,,,,152712.69999998808,152711.062,152611.06,152613.39999997616,152627.727,152727.729,,grey
,Reaction,canvas.Screen,3_56_0_2,2022-03-01T10:34:09.670Z,,,,1,A,237.470999988087,response,,stim_detected,keydown(Space),152969.5,152965.19999998808,152711.062,152712.80000001192,152727.729,152977.734,,grey
,Trial,flow.Sequence,3_56_0,2022-03-01T10:34:09.670Z,,,,1,A,2220.8439999880793,completion,,,,152969.80000001192,152965.19999998808,150727.689,150742.60000002384,150744.356,152977.734,,grey
,Frame,canvas.Frame,3_56,2022-03-01T10:34:09.671Z,,,,1,A,2225.5439999761584,,,,,152970,152969.89999997616,150727.689,150741.89999997616,150744.356,152977.734,,grey
,Fixation,canvas.Screen,3_57_0_0,2022-03-01T10:34:12.064Z,,,,1,A,2400.04800000001,timeout,,,,155363.10000002384,155361.115,152961.067,152971,152977.734,155377.782,,grey
,Stimulus,canvas.Screen,3_57_0_1,2022-03-01T10:34:12.164Z,,,,1,A,100.00200000000768,timeout,,,,155463.5,155461.117,155361.115,155363.39999997616,155377.782,155477.784,,grey
,Reaction,canvas.Screen,3_57_0_2,2022-03-01T10:34:12.498Z,,,,1,A,314.2159999999858,response,,stim_detected,keydown(Space),155797.10000002384,155792,155461.117,155463.69999998808,155477.784,155811.124,,grey
,Trial,flow.Sequence,3_57_0,2022-03-01T10:34:12.498Z,,,,1,A,2814.2660000000033,completion,,,,155797.39999997616,155792,152961.067,152971,152977.734,155811.124,,grey
,Frame,canvas.Frame,3_57,2022-03-01T10:34:12.498Z,,,,1,A,2819.7660000000033,,,,,155797.60000002384,155797.5,152961.067,152970.10000002384,152977.734,155811.124,,grey
,Fixation,canvas.Screen,3_58_0_0,2022-03-01T10:34:14.663Z,,,,1,VA,2166.709999999992,timeout,,,,157962.60000002384,157961.167,155794.457,155798.69999998808,155811.124,157977.834,,white
,Stimulus,canvas.Screen,3_58_0_1,2022-03-01T10:34:14.764Z,,,,1,VA,100.00200000000768,timeout,,,,158063.39999997616,158061.169,157961.167,157962.69999998808,157977.834,158077.836,,white
,Reaction,canvas.Screen,3_58_0_2,2022-03-01T10:34:14.990Z,,,,1,VA,207.0639999761479,response,,stim_detected,keydown(Space),158289.69999998808,158284.89999997616,158061.169,158063.5,158077.836,158294.507,,white
,Trial,flow.Sequence,3_58_0,2022-03-01T10:34:14.991Z,,,,1,VA,2473.7759999761474,completion,,,,158289.89999997616,158284.89999997616,155794.457,155798.60000002384,155811.124,158294.507,,white
,Frame,canvas.Frame,3_58,2022-03-01T10:34:14.991Z,,,,1,VA,2478.8759999999893,,,,,158290.10000002384,158290,155794.457,155797.69999998808,155811.124,158294.507,,white
,Fixation,canvas.Screen,3_59_0_0,2022-03-01T10:34:16.881Z,,,,1,A,1900.0380000000005,timeout,,,,160180,160177.878,158277.84,158291.19999998808,158294.507,160194.545,,grey
,Stimulus,canvas.Screen,3_59_0_1,2022-03-01T10:34:16.980Z,,,,1,A,100.00199999997858,timeout,,,,160278.80000001192,160277.88,160177.878,160180.10000002384,160194.545,160294.547,,grey
,Reaction,canvas.Screen,3_59_0_2,2022-03-01T10:34:17.210Z,,,,1,A,210.15299998808769,response,,stim_detected,keydown(Space),160509.19999998808,160504.69999998808,160277.88,160279,160294.547,160511.218,,grey
,Trial,flow.Sequence,3_59_0,2022-03-01T10:34:17.210Z,,,,1,A,2210.1929999880667,completion,,,,160509.5,160504.69999998808,158277.84,158291.10000002384,158294.507,160511.218,,grey
,Frame,canvas.Frame,3_59,2022-03-01T10:34:17.211Z,,,,1,A,2215.0930000238295,,,,,160509.80000001192,160509.60000002384,158277.84,158290.19999998808,158294.507,160511.218,,grey
,Fixation,canvas.Screen,3_60_0_0,2022-03-01T10:34:19.181Z,,,,1,VA,1983.3729999999923,timeout,,,,162480.60000002384,162477.924,160494.551,160511,160511.218,162494.591,,white
,Stimulus,canvas.Screen,3_60_0_1,2022-03-01T10:34:19.281Z,,,,1,VA,100.00200000000768,timeout,,,,162580.10000002384,162577.926,162477.924,162480.80000001192,162494.591,162594.593,,white
,Reaction,canvas.Screen,3_60_0_2,2022-03-01T10:34:19.500Z,,,,1,VA,200.1069999880856,response,,stim_detected,keydown(Space),162799,162794.69999998808,162577.926,162580.30000001192,162594.593,162811.264,,white
,Trial,flow.Sequence,3_60_0,2022-03-01T10:34:19.500Z,,,,1,VA,2283.4819999880856,completion,,,,162799.30000001192,162794.69999998808,160494.551,160510.89999997616,160511.218,162811.264,,white
,Frame,canvas.Frame,3_60,2022-03-01T10:34:19.500Z,,,,1,VA,2288.1819999761647,,,,,162799.5,162799.39999997616,160494.551,160509.89999997616,160511.218,162811.264,,white
,Fixation,canvas.Screen,3_61_0_0,2022-03-01T10:34:21.947Z,,,,1,VA,2450.048999999999,timeout,,,,165245.69999998808,165244.646,162794.597,162800.5,162811.264,165261.313,,white
,Stimulus,canvas.Screen,3_61_0_1,2022-03-01T10:34:22.047Z,,,,1,VA,100.00200000000768,timeout,,,,165346.60000002384,165344.648,165244.646,165245.89999997616,165261.313,165361.315,,white
,Reaction,canvas.Screen,3_61_0_2,2022-03-01T10:34:22.259Z,,,,1,VA,192.28500002383953,response,,stim_detected,keydown(Space),165558.19999998808,165553.60000002384,165344.648,165346.69999998808,165361.315,165561.319,,white
,Trial,flow.Sequence,3_61_0,2022-03-01T10:34:22.259Z,,,,1,VA,2742.3360000238463,completion,,,,165558.60000002384,165553.60000002384,162794.597,162800.39999997616,162811.264,165561.319,,white
,Frame,canvas.Frame,3_61,2022-03-01T10:34:22.260Z,,,,1,VA,2747.3360000238463,,,,,165558.69999998808,165558.60000002384,162794.597,162799.60000002384,162811.264,165561.319,,white
,Fixation,canvas.Screen,3_62_0_0,2022-03-01T10:34:24.047Z,,,,1,A,1816.7030000000086,timeout,,,,167346.5,167344.688,165544.652,165559.69999998808,165561.319,167378.022,,grey
,Stimulus,canvas.Screen,3_62_0_1,2022-03-01T10:34:24.164Z,,,,1,A,100.00200000000768,timeout,,,,167463,167461.357,167344.688,167346.69999998808,167378.022,167478.024,,grey
,Reaction,canvas.Screen,3_62_0_2,2022-03-01T10:34:24.397Z,,,,1,A,213.27600001191604,response,,stim_detected,keydown(Space),167696.10000002384,167691.30000001192,167461.357,167463.19999998808,167478.024,167711.362,,grey
,Trial,flow.Sequence,3_62_0,2022-03-01T10:34:24.397Z,,,,1,A,2129.9810000119323,completion,,,,167696.30000001192,167691.30000001192,165544.652,165559.60000002384,165561.319,167711.362,,grey
,Frame,canvas.Frame,3_62,2022-03-01T10:34:24.397Z,,,,1,A,2135.0809999761696,,,,,167696.5,167696.39999997616,165544.652,165558.80000001192,165561.319,167711.362,,grey
,Fixation,canvas.Screen,3_63_0_0,2022-03-01T10:34:26.581Z,,,,0,V,2183.3770000000077,timeout,,,,169880.10000002384,169878.072,167694.695,167697.60000002384,167711.362,169894.739,,white
,Stimulus,canvas.Screen,3_63_0_1,2022-03-01T10:34:26.681Z,,,,0,V,100.00200000000768,timeout,,,,169980.30000001192,169978.074,169878.072,169880.30000001192,169894.739,169994.741,,white
,Reaction,canvas.Screen,3_63_0_2,2022-03-01T10:34:26.879Z,,,,0,V,178.55900001191185,response,,stim_detected,keydown(Space),170177.69999998808,170173.30000001192,169978.074,169980.5,169994.741,170194.745,,white
,Trial,flow.Sequence,3_63_0,2022-03-01T10:34:26.879Z,,,,0,V,2461.938000011927,completion,,,,170178.10000002384,170173.30000001192,167694.695,167697.5,167711.362,170194.745,,white
,Frame,canvas.Frame,3_63,2022-03-01T10:34:26.879Z,,,,0,V,2466.738000023848,,,,,170178.19999998808,170178.10000002384,167694.695,167696.69999998808,167711.362,170194.745,,white
,Fixation,canvas.Screen,3_64_0_0,2022-03-01T10:34:29.214Z,,,,0,V,2333.3800000000047,timeout,,,,172513.19999998808,172511.458,170178.078,170179.30000001192,170194.745,172528.125,,white
,Stimulus,canvas.Screen,3_64_0_1,2022-03-01T10:34:29.332Z,,,,0,V,100.00200000000768,timeout,,,,172631.39999997616,172611.46,172511.458,172513.39999997616,172528.125,172628.127,,white
,Reaction,canvas.Screen,3_64_0_2,2022-03-01T10:34:29.523Z,,,,0,V,188.97300002383417,response,,stim_detected,keydown(Space),172821.5,172817.10000002384,172611.46,172631.60000002384,172628.127,172828.131,,white
,Trial,flow.Sequence,3_64_0,2022-03-01T10:34:29.523Z,,,,0,V,2622.3550000238465,completion,,,,172821.80000001192,172817.10000002384,170178.078,170179.19999998808,170194.745,172828.131,,white
,Frame,canvas.Frame,3_64,2022-03-01T10:34:29.523Z,,,,0,V,2627.154999976163,,,,,172822,172821.89999997616,170178.078,170178.30000001192,170194.745,172828.131,,white
,Fixation,canvas.Screen,3_65_0_0,2022-03-01T10:34:31.964Z,,,,1,A,2450.048999999999,timeout,,,,175263.10000002384,175261.513,172811.464,172823.19999998808,172828.131,175278.18,,grey
,Stimulus,canvas.Screen,3_65_0_1,2022-03-01T10:34:32.064Z,,,,1,A,100.00200000000768,timeout,,,,175363.30000001192,175361.515,175261.513,175263.30000001192,175278.18,175378.182,,grey
,Reaction,canvas.Screen,3_65_0_2,2022-03-01T10:34:32.332Z,,,,1,A,249.71799997615744,response,,stim_detected,keydown(Space),175630.80000001192,175627.89999997616,175361.515,175363.39999997616,175378.182,175644.854,,grey
,Trial,flow.Sequence,3_65_0,2022-03-01T10:34:32.332Z,,,,1,A,2799.768999976164,completion,,,,175631.10000002384,175627.89999997616,172811.464,172823.10000002384,172828.131,175644.854,,grey
,Frame,canvas.Frame,3_65,2022-03-01T10:34:32.332Z,,,,1,A,2803.068999988085,,,,,175631.19999998808,175631.19999998808,172811.464,172822.10000002384,172828.131,175644.854,,grey
,Fixation,canvas.Screen,3_66_0_0,2022-03-01T10:34:34.348Z,,,,0,V,2016.7069999999949,timeout,,,,177647.19999998808,177644.894,175628.187,175631.80000001192,175644.854,177661.561,,white
,Stimulus,canvas.Screen,3_66_0_1,2022-03-01T10:34:34.447Z,,,,0,V,100.00200000000768,timeout,,,,177746,177744.896,177644.894,177647.39999997616,177661.561,177761.563,,white
,Reaction,canvas.Screen,3_66_0_2,2022-03-01T10:34:34.657Z,,,,0,V,189.3369999761635,response,,stim_detected,keydown(Space),177955.60000002384,177950.89999997616,177744.896,177746.10000002384,177761.563,177961.567,,white
,Trial,flow.Sequence,3_66_0,2022-03-01T10:34:34.657Z,,,,0,V,2306.045999976166,completion,,,,177955.89999997616,177950.89999997616,175628.187,175631.80000001192,175644.854,177961.567,,white
,Frame,canvas.Frame,3_66,2022-03-01T10:34:34.657Z,,,,0,V,2311.146000000008,,,,,177956.10000002384,177956,175628.187,175631.30000001192,175644.854,177961.567,,white
,Fixation,canvas.Screen,3_67_0_0,2022-03-01T10:34:37.132Z,,,,1,VA,2483.3830000000016,timeout,,,,180430.39999997616,180428.283,177944.9,177958.30000001192,177961.567,180444.95,,white
,Stimulus,canvas.Screen,3_67_0_1,2022-03-01T10:34:37.231Z,,,,1,VA,100.00199999997858,timeout,,,,180529.80000001192,180528.285,180428.283,180430.69999998808,180444.95,180544.952,,white
,Reaction,canvas.Screen,3_67_0_2,2022-03-01T10:34:37.423Z,,,,1,VA,171.8480000119307,response,,stim_detected,keydown(Space),180721.30000001192,180716.80000001192,180528.285,180530,180544.952,180728.289,,white
,Trial,flow.Sequence,3_67_0,2022-03-01T10:34:37.423Z,,,,1,VA,2755.233000011911,completion,,,,180721.60000002384,180716.80000001192,177944.9,177958.19999998808,177961.567,180728.289,,white
,Frame,canvas.Frame,3_67,2022-03-01T10:34:37.423Z,,,,1,VA,2760.132999988069,,,,,180721.69999998808,180721.69999998808,177944.9,177956.19999998808,177961.567,180728.289,,white
,Fixation,canvas.Screen,3_68_0_0,2022-03-01T10:34:39.216Z,,,,1,A,1800.0360000000219,timeout,,,,182514.19999998808,182511.658,180711.622,180722.80000001192,180728.289,182528.325,,grey
,Stimulus,canvas.Screen,3_68_0_1,2022-03-01T10:34:39.315Z,,,,1,A,100.00199999997858,timeout,,,,182613.60000002384,182611.66,182511.658,182514.39999997616,182528.325,182628.327,,grey
,Reaction,canvas.Screen,3_68_0_2,2022-03-01T10:34:39.587Z,,,,1,A,253.27300002385164,response,,stim_detected,keydown(Space),182886,182881.60000002384,182611.66,182613.69999998808,182628.327,182894.999,,grey
,Trial,flow.Sequence,3_68_0,2022-03-01T10:34:39.588Z,,,,1,A,2153.311000023852,completion,,,,182886.39999997616,182881.60000002384,180711.622,180722.80000001192,180728.289,182894.999,,grey
,Frame,canvas.Frame,3_68,2022-03-01T10:34:39.588Z,,,,1,A,2158.2110000000102,,,,,182886.5,182886.5,180711.622,180721.89999997616,180728.289,182894.999,,grey
,Fixation,canvas.Screen,3_69_0_0,2022-03-01T10:34:41.915Z,,,,0,V,2333.3799999999756,timeout,,,,185213.69999998808,185211.712,182878.332,182887.60000002384,182894.999,185228.379,,white
,Stimulus,canvas.Screen,3_69_0_1,2022-03-01T10:34:42.015Z,,,,0,V,100.00200000000768,timeout,,,,185313.39999997616,185311.714,185211.712,185214.10000002384,185228.379,185328.381,,white
,Reaction,canvas.Screen,3_69_0_2,2022-03-01T10:34:42.282Z,,,,0,V,247.2190000238479,response,,stim_detected,keydown(Space),185580.19999998808,185575.60000002384,185311.714,185313.60000002384,185328.381,185595.053,,white
,Trial,flow.Sequence,3_69_0,2022-03-01T10:34:42.282Z,,,,0,V,2680.601000023831,completion,,,,185580.60000002384,185575.60000002384,182878.332,182887.5,182894.999,185595.053,,white
,Frame,canvas.Frame,3_69,2022-03-01T10:34:42.282Z,,,,0,V,2685.601000023831,,,,,185580.69999998808,185580.60000002384,182878.332,182886.60000002384,182894.999,185595.053,,white
,Fixation,canvas.Screen,3_70_0_0,2022-03-01T10:34:44.066Z,,,,1,VA,1783.368999999977,timeout,,,,187364.10000002384,187361.755,185578.386,185581.89999997616,185595.053,187378.422,,white
,Stimulus,canvas.Screen,3_70_0_1,2022-03-01T10:34:44.165Z,,,,1,VA,100.00200000000768,timeout,,,,187463.60000002384,187461.757,187361.755,187364.30000001192,187378.422,187478.424,,white
,Reaction,canvas.Screen,3_70_0_2,2022-03-01T10:34:44.427Z,,,,1,VA,241.97599997615907,response,,stim_detected,keydown(Space),187725.69999998808,187720.39999997616,187461.757,187463.80000001192,187478.424,187728.429,,white
,Trial,flow.Sequence,3_70_0,2022-03-01T10:34:44.428Z,,,,1,VA,2125.3469999761437,completion,,,,187726.10000002384,187720.39999997616,185578.386,185581.89999997616,185595.053,187728.429,,white
,Frame,canvas.Frame,3_70,2022-03-01T10:34:44.428Z,,,,1,VA,2131.0470000238274,,,,,187726.30000001192,187726.10000002384,185578.386,185580.89999997616,185595.053,187728.429,,white
,Fixation,canvas.Screen,3_71_0_0,2022-03-01T10:34:46.148Z,,,,1,A,1733.3679999999877,timeout,,,,189446.60000002384,189445.13,187711.762,187727.30000001192,187728.429,189461.797,,grey
,Stimulus,canvas.Screen,3_71_0_1,2022-03-01T10:34:46.249Z,,,,1,A,100.00200000000768,timeout,,,,189547.19999998808,189545.132,189445.13,189446.80000001192,189461.797,189561.799,,grey
,Reaction,canvas.Screen,3_71_0_2,2022-03-01T10:34:46.512Z,,,,1,A,244.3010000238428,response,,stim_detected,keydown(Space),189810.80000001192,189806.10000002384,189545.132,189547.39999997616,189561.799,189828.471,,grey
,Trial,flow.Sequence,3_71_0,2022-03-01T10:34:46.513Z,,,,1,A,2077.671000023838,completion,,,,189811,189806.10000002384,187711.762,187727.30000001192,187728.429,189828.471,,grey
,Frame,canvas.Frame,3_71,2022-03-01T10:34:46.513Z,,,,1,A,2082.671000023838,,,,,189811.30000001192,189811.10000002384,187711.762,187726.30000001192,187728.429,189828.471,,grey
,Fixation,canvas.Screen,3_72_0_0,2022-03-01T10:34:48.399Z,,,,1,VA,1883.3710000000137,timeout,,,,191697.60000002384,191695.175,189811.804,189812.19999998808,189828.471,191711.842,,white
,Stimulus,canvas.Screen,3_72_0_1,2022-03-01T10:34:48.499Z,,,,1,VA,100.00200000000768,timeout,,,,191797.10000002384,191795.177,191695.175,191697.69999998808,191711.842,191811.844,,white
,Reaction,canvas.Screen,3_72_0_2,2022-03-01T10:34:48.772Z,,,,1,VA,254.3559999880672,response,,stim_detected,keydown(Space),192070.60000002384,192066.19999998808,191795.177,191797.30000001192,191811.844,192078.516,,white
,Trial,flow.Sequence,3_72_0,2022-03-01T10:34:48.772Z,,,,1,VA,2237.7289999880886,completion,,,,192070.80000001192,192066.19999998808,189811.804,189812.10000002384,189828.471,192078.516,,white
,Frame,canvas.Frame,3_72,2022-03-01T10:34:48.773Z,,,,1,VA,2242.4289999761677,,,,,192071,192070.89999997616,189811.804,189811.39999997616,189828.471,192078.516,,white
,Fixation,canvas.Screen,3_73_0_0,2022-03-01T10:34:50.553Z,,,,0,V,1783.369000000006,timeout,,,,193851.10000002384,193845.218,192061.849,192072.10000002384,192078.516,193861.885,,white
,Stimulus,canvas.Screen,3_73_0_1,2022-03-01T10:34:50.649Z,,,,0,V,100.00199999997858,timeout,,,,193947.19999998808,193945.22,193845.218,193851.19999998808,193861.885,193961.887,,white
,Reaction,canvas.Screen,3_73_0_2,2022-03-01T10:34:50.877Z,,,,0,V,209.1130000000121,response,,stim_detected,keydown(Space),194175.39999997616,194171,193945.22,193947.39999997616,193961.887,194178.558,,white
,Trial,flow.Sequence,3_73_0,2022-03-01T10:34:50.877Z,,,,0,V,2092.4839999999967,completion,,,,194175.69999998808,194171,192061.849,192072.10000002384,192078.516,194178.558,,white
,Frame,canvas.Frame,3_73,2022-03-01T10:34:50.878Z,,,,0,V,2097.2840000119177,,,,,194175.89999997616,194175.80000001192,192061.849,192071.19999998808,192078.516,194178.558,,white
,Fixation,canvas.Screen,3_74_0_0,2022-03-01T10:34:53.083Z,,,,1,A,2216.7110000000102,timeout,,,,196381.10000002384,196378.602,194161.891,194177.10000002384,194178.558,196395.269,,grey
,Stimulus,canvas.Screen,3_74_0_1,2022-03-01T10:34:53.182Z,,,,1,A,100.00200000000768,timeout,,,,196480.5,196478.604,196378.602,196381.19999998808,196395.269,196495.271,,grey
,Reaction,canvas.Screen,3_74_0_2,2022-03-01T10:34:53.509Z,,,,1,A,307.7289999999921,response,,stim_detected,keydown(Space),196807.39999997616,196803,196478.604,196480.69999998808,196495.271,196811.944,,grey
,Trial,flow.Sequence,3_74_0,2022-03-01T10:34:53.509Z,,,,1,A,2624.44200000001,completion,,,,196807.69999998808,196803,194161.891,194177,194178.558,196811.944,,grey
,Frame,canvas.Frame,3_74,2022-03-01T10:34:53.510Z,,,,1,A,2629.141999988089,,,,,196807.89999997616,196807.69999998808,194161.891,194176,194178.558,196811.944,,grey
,Fixation,canvas.Screen,3_75_0_0,2022-03-01T10:34:55.816Z,,,,1,VA,2316.713000000018,timeout,,,,199114.10000002384,199111.99,196795.277,196809.10000002384,196811.944,199128.657,,white
,Stimulus,canvas.Screen,3_75_0_1,2022-03-01T10:34:55.916Z,,,,1,VA,100.00200000000768,timeout,,,,199214.19999998808,199211.992,199111.99,199114.30000001192,199128.657,199228.659,,white
,Reaction,canvas.Screen,3_75_0_2,2022-03-01T10:34:56.164Z,,,,1,VA,229.14100001190673,response,,stim_detected,keydown(Space),199462.5,199457.80000001192,199211.992,199214.39999997616,199228.659,199478.664,,white
,Trial,flow.Sequence,3_75_0,2022-03-01T10:34:56.165Z,,,,1,VA,2645.8560000119323,completion,,,,199462.80000001192,199457.80000001192,196795.277,196809.10000002384,196811.944,199478.664,,white
,Frame,canvas.Frame,3_75,2022-03-01T10:34:56.165Z,,,,1,VA,2650.9559999761696,,,,,199463,199462.89999997616,196795.277,196808,196811.944,199478.664,,white
,Fixation,canvas.Screen,3_76_0_0,2022-03-01T10:34:58.633Z,,,,1,VA,2466.716000000015,timeout,,,,201931.19999998808,201928.713,199461.997,199464,199478.664,201945.38,,white
,Stimulus,canvas.Screen,3_76_0_1,2022-03-01T10:34:58.733Z,,,,1,VA,100.00200000000768,timeout,,,,202030.69999998808,202028.715,201928.713,201931.39999997616,201945.38,202045.382,,white
,Reaction,canvas.Screen,3_76_0_2,2022-03-01T10:34:58.971Z,,,,1,VA,219.11799999998766,response,,stim_detected,keydown(Space),202269.10000002384,202264.5,202028.715,202030.89999997616,202045.382,202278.72,,white
,Trial,flow.Sequence,3_76_0,2022-03-01T10:34:58.971Z,,,,1,VA,2785.8360000000102,completion,,,,202269.39999997616,202264.5,199461.997,199463.89999997616,199478.664,202278.72,,white
,Frame,canvas.Frame,3_76,2022-03-01T10:34:58.972Z,,,,1,VA,2790.8360000000102,,,,,202269.69999998808,202269.5,199461.997,199463.10000002384,199478.664,202278.72,,white
,Fixation,canvas.Screen,3_77_0_0,2022-03-01T10:35:00.483Z,,,,0,V,1516.6969999999856,timeout,,,,203780.60000002384,203778.75,202262.053,202270.69999998808,202278.72,203795.417,,white
,Stimulus,canvas.Screen,3_77_0_1,2022-03-01T10:35:00.583Z,,,,0,V,100.00200000000768,timeout,,,,203881.39999997616,203878.752,203778.75,203780.80000001192,203795.417,203895.419,,white
,Reaction,canvas.Screen,3_77_0_2,2022-03-01T10:35:00.856Z,,,,0,V,254.18100002384745,response,,stim_detected,keydown(Space),204153.80000001192,204149.60000002384,203878.752,203881.60000002384,203895.419,204162.091,,white
,Trial,flow.Sequence,3_77_0,2022-03-01T10:35:00.856Z,,,,0,V,1870.8800000238407,completion,,,,204154.10000002384,204149.60000002384,202262.053,202270.60000002384,202278.72,204162.091,,white
,Frame,canvas.Frame,3_77,2022-03-01T10:35:00.856Z,,,,0,V,1875.479999988078,,,,,204154.30000001192,204154.19999998808,202262.053,202269.80000001192,202278.72,204162.091,,white
,Fixation,canvas.Screen,3_78_0_0,2022-03-01T10:35:03.066Z,,,,1,A,2216.7110000000102,timeout,,,,206364.39999997616,206362.135,204145.424,204155.30000001192,204162.091,206378.802,,grey
,Stimulus,canvas.Screen,3_78_0_1,2022-03-01T10:35:03.167Z,,,,1,A,100.00200000000768,timeout,,,,206464.5,206462.137,206362.135,206364.60000002384,206378.802,206478.804,,grey
,Reaction,canvas.Screen,3_78_0_2,2022-03-01T10:35:03.376Z,,,,1,A,190.59599997615442,response,,stim_detected,keydown(Space),206674,206669.39999997616,206462.137,206464.80000001192,206478.804,206678.808,,grey
,Trial,flow.Sequence,3_78_0,2022-03-01T10:35:03.376Z,,,,1,A,2507.3089999761723,completion,,,,206674.19999998808,206669.39999997616,204145.424,204155.19999998808,204162.091,206678.808,,grey
,Frame,canvas.Frame,3_78,2022-03-01T10:35:03.376Z,,,,1,A,2512.209000011935,,,,,206674.39999997616,206674.30000001192,204145.424,204154.39999997616,204162.091,206678.808,,grey
,Fixation,canvas.Screen,3_79_0_0,2022-03-01T10:35:05.367Z,,,,1,VA,2000.0400000000081,timeout,,,,208664.60000002384,208662.181,206662.141,206675.5,206678.808,208678.848,,white
,Stimulus,canvas.Screen,3_79_0_1,2022-03-01T10:35:05.466Z,,,,1,VA,100.00200000000768,timeout,,,,208764.39999997616,208762.183,208662.181,208664.80000001192,208678.848,208778.85,,white
,Reaction,canvas.Screen,3_79_0_2,2022-03-01T10:35:05.654Z,,,,1,VA,168.4500000119151,response,,stim_detected,keydown(Space),208951.60000002384,208947.30000001192,208762.183,208764.5,208778.85,208962.187,,white
,Trial,flow.Sequence,3_79_0,2022-03-01T10:35:05.654Z,,,,1,VA,2268.492000011931,completion,,,,208951.89999997616,208947.30000001192,206662.141,206675.5,206678.808,208962.187,,white
,Frame,canvas.Frame,3_79,2022-03-01T10:35:05.654Z,,,,1,VA,2273.091999976168,,,,,208952.10000002384,208951.89999997616,206662.141,206674.60000002384,206678.808,208962.187,,white
,Fixation,canvas.Screen,3_80_0_0,2022-03-01T10:35:07.266Z,,,,0,V,1616.6989999999932,timeout,,,,210564.19999998808,210562.219,208945.52,208953.30000001192,208962.187,210578.886,,white
,Stimulus,canvas.Screen,3_80_0_1,2022-03-01T10:35:07.366Z,,,,0,V,100.00200000000768,timeout,,,,210663.89999997616,210662.221,210562.219,210564.39999997616,210578.886,210678.888,,white
,Reaction,canvas.Screen,3_80_0_2,2022-03-01T10:35:07.651Z,,,,0,V,265.3119999880728,response,,stim_detected,keydown(Space),210948.5,210944.19999998808,210662.221,210664.10000002384,210678.888,210962.227,,white
,Trial,flow.Sequence,3_80_0,2022-03-01T10:35:07.651Z,,,,0,V,1982.0129999880737,completion,,,,210948.80000001192,210944.19999998808,208945.52,208953.10000002384,208962.187,210962.227,,white
,Frame,canvas.Frame,3_80,2022-03-01T10:35:07.651Z,,,,0,V,1986.7129999761528,,,,,210949,210948.89999997616,208945.52,208952.10000002384,208962.187,210962.227,,white
,Fixation,canvas.Screen,3_81_0_0,2022-03-01T10:35:09.283Z,,,,1,VA,1633.36599999998,timeout,,,,212581.10000002384,212578.926,210945.56,210949.89999997616,210962.227,212595.593,,white
,Stimulus,canvas.Screen,3_81_0_1,2022-03-01T10:35:09.382Z,,,,1,VA,100.00200000000768,timeout,,,,212680.30000001192,212678.928,212578.926,212581.30000001192,212595.593,212695.595,,white
,Reaction,canvas.Screen,3_81_0_2,2022-03-01T10:35:09.590Z,,,,1,VA,187.5050000238407,response,,stim_detected,keydown(Space),212887.69999998808,212883.10000002384,212678.928,212680.5,212695.595,212895.599,,white
,Trial,flow.Sequence,3_81_0,2022-03-01T10:35:09.590Z,,,,1,VA,1920.8730000238284,completion,,,,212887.89999997616,212883.10000002384,210945.56,210949.89999997616,210962.227,212895.599,,white
,Frame,canvas.Frame,3_81,2022-03-01T10:35:09.590Z,,,,1,VA,1925.8730000238284,,,,,212888.10000002384,212888.10000002384,210945.56,210949.10000002384,210962.227,212895.599,,white
,Fixation,canvas.Screen,3_82_0_0,2022-03-01T10:35:12.001Z,,,,0,V,2416.7150000000256,timeout,,,,215298.30000001192,215295.647,212878.932,212890.5,212895.599,215312.314,,white
,Stimulus,canvas.Screen,3_82_0_1,2022-03-01T10:35:12.101Z,,,,0,V,100.00199999997858,timeout,,,,215398.30000001192,215395.649,215295.647,215298.60000002384,215312.314,215412.316,,white
,Reaction,canvas.Screen,3_82_0_2,2022-03-01T10:35:12.300Z,,,,0,V,180.58399997616652,response,,stim_detected,keydown(Space),215597.60000002384,215592.89999997616,215395.649,215398.5,215412.316,215612.32,,white
,Trial,flow.Sequence,3_82_0,2022-03-01T10:35:12.300Z,,,,0,V,2697.3009999761707,completion,,,,215597.89999997616,215592.89999997616,212878.932,212890.39999997616,212895.599,215612.32,,white
,Frame,canvas.Frame,3_82,2022-03-01T10:35:12.300Z,,,,0,V,2702.3009999761707,,,,,215598.10000002384,215597.89999997616,212878.932,212888.19999998808,212895.599,215612.32,,white
,Fixation,canvas.Screen,3_83_0_0,2022-03-01T10:35:13.933Z,,,,0,V,1633.36599999998,timeout,,,,217230.89999997616,217229.019,215595.653,215599.10000002384,215612.32,217245.686,,white
,Stimulus,canvas.Screen,3_83_0_1,2022-03-01T10:35:14.034Z,,,,0,V,100.00200000000768,timeout,,,,217331.5,217329.021,217229.019,217231.10000002384,217245.686,217345.688,,white
,Reaction,canvas.Screen,3_83_0_2,2022-03-01T10:35:14.278Z,,,,0,V,226.01199998808443,response,,stim_detected,keydown(Space),217575.80000001192,217571.69999998808,217329.021,217331.60000002384,217345.688,217579.026,,white
,Trial,flow.Sequence,3_83_0,2022-03-01T10:35:14.278Z,,,,0,V,1959.379999988072,completion,,,,217576.19999998808,217571.69999998808,215595.653,215599.10000002384,215612.32,217579.026,,white
,Frame,canvas.Frame,3_83,2022-03-01T10:35:14.279Z,,,,0,V,1963.879999988072,,,,,217576.30000001192,217576.19999998808,215595.653,215598.10000002384,215612.32,217579.026,,white
,Fixation,canvas.Screen,3_84_0_0,2022-03-01T10:35:16.633Z,,,,0,V,2366.713999999978,timeout,,,,219930.80000001192,219929.073,217562.359,217577.39999997616,217579.026,219945.74,,white
,Stimulus,canvas.Screen,3_84_0_1,2022-03-01T10:35:16.734Z,,,,0,V,100.00200000000768,timeout,,,,220031.5,220029.075,219929.073,219931,219945.74,220045.742,,white
,Reaction,canvas.Screen,3_84_0_2,2022-03-01T10:35:16.919Z,,,,0,V,165.75800000000163,response,,stim_detected,keydown(Space),220216.19999998808,220211.5,220029.075,220031.60000002384,220045.742,220229.079,,white
,Trial,flow.Sequence,3_84_0,2022-03-01T10:35:16.919Z,,,,0,V,2632.4739999999874,completion,,,,220216.39999997616,220211.5,217562.359,217577.30000001192,217579.026,220229.079,,white
,Frame,canvas.Frame,3_84,2022-03-01T10:35:16.919Z,,,,0,V,2637.4739999999874,,,,,220216.60000002384,220216.5,217562.359,217576.39999997616,217579.026,220229.079,,white
,Fixation,canvas.Screen,3_85_0_0,2022-03-01T10:35:19.301Z,,,,0,V,2383.380999999994,timeout,,,,222598.19999998808,222595.793,220212.412,220217.60000002384,220229.079,222612.46,,white
,Stimulus,canvas.Screen,3_85_0_1,2022-03-01T10:35:19.400Z,,,,0,V,100.00200000000768,timeout,,,,222697.60000002384,222695.795,222595.793,222598.5,222612.46,222712.462,,white
,Reaction,canvas.Screen,3_85_0_2,2022-03-01T10:35:19.560Z,,,,0,V,141.03800000000047,response,,stim_detected,keydown(Space),222857.80000001192,222853.5,222695.795,222697.89999997616,222712.462,222862.465,,white
,Trial,flow.Sequence,3_85_0,2022-03-01T10:35:19.561Z,,,,0,V,2624.421000000002,completion,,,,222858.10000002384,222853.5,220212.412,220217.5,220229.079,222862.465,,white
,Frame,canvas.Frame,3_85,2022-03-01T10:35:19.561Z,,,,0,V,2629.120999988081,,,,,222858.30000001192,222858.19999998808,220212.412,220216.69999998808,220229.079,222862.465,,white
,Fixation,canvas.Screen,3_86_0_0,2022-03-01T10:35:21.466Z,,,,1,A,1916.7050000000163,timeout,,,,224764,224762.503,222845.798,222859.39999997616,222862.465,224779.17,,grey
,Stimulus,canvas.Screen,3_86_0_1,2022-03-01T10:35:21.568Z,,,,1,A,100.00199999997858,timeout,,,,224865.80000001192,224862.505,224762.503,224764.10000002384,224779.17,224879.172,,grey
,Reaction,canvas.Screen,3_86_0_2,2022-03-01T10:35:21.815Z,,,,1,A,228.22799997616676,response,,stim_detected,keydown(Space),225112.19999998808,225107.39999997616,224862.505,224866,224879.172,225129.177,,grey
,Trial,flow.Sequence,3_86_0,2022-03-01T10:35:21.815Z,,,,1,A,2244.9349999761616,completion,,,,225112.5,225107.39999997616,222845.798,222859.30000001192,222862.465,225129.177,,grey
,Frame,canvas.Frame,3_86,2022-03-01T10:35:21.815Z,,,,1,A,2250.0350000000035,,,,,225112.69999998808,225112.5,222845.798,222858.39999997616,222862.465,225129.177,,grey
,Fixation,canvas.Screen,3_87_0_0,2022-03-01T10:35:24.201Z,,,,1,A,2383.380999999994,timeout,,,,227498.30000001192,227495.891,225112.51,225113.69999998808,225129.177,227512.558,,grey
,Stimulus,canvas.Screen,3_87_0_1,2022-03-01T10:35:24.301Z,,,,1,A,100.00200000000768,timeout,,,,227598.10000002384,227595.893,227495.891,227498.60000002384,227512.558,227612.56,,grey
,Reaction,canvas.Screen,3_87_0_2,2022-03-01T10:35:24.581Z,,,,1,A,261.74000001192326,response,,stim_detected,keydown(Space),227878.89999997616,227874.30000001192,227595.893,227598.30000001192,227612.56,227895.899,,grey
,Trial,flow.Sequence,3_87_0,2022-03-01T10:35:24.582Z,,,,1,A,2745.123000011925,completion,,,,227879.19999998808,227874.30000001192,225112.51,225113.69999998808,225129.177,227895.899,,grey
,Frame,canvas.Frame,3_87,2022-03-01T10:35:24.582Z,,,,1,A,2750.123000011925,,,,,227879.39999997616,227879.30000001192,225112.51,225112.80000001192,225129.177,227895.899,,grey
,Fixation,canvas.Screen,3_88_0_0,2022-03-01T10:35:26.250Z,,,,0,V,1666.6999999999825,timeout,,,,229547.5,229545.932,227879.232,227880.5,227895.899,229562.599,,white
,Stimulus,canvas.Screen,3_88_0_1,2022-03-01T10:35:26.351Z,,,,0,V,100.00200000000768,timeout,,,,229648.19999998808,229645.934,229545.932,229547.69999998808,229562.599,229662.601,,white
,Reaction,canvas.Screen,3_88_0_2,2022-03-01T10:35:26.577Z,,,,0,V,207.59899998808396,response,,stim_detected,keydown(Space),229874.80000001192,229870.19999998808,229645.934,229648.5,229662.601,229879.272,,white
,Trial,flow.Sequence,3_88_0,2022-03-01T10:35:26.578Z,,,,0,V,1974.3009999880742,completion,,,,229875.10000002384,229870.19999998808,227879.232,227880.39999997616,227895.899,229879.272,,white
,Frame,canvas.Frame,3_88,2022-03-01T10:35:26.578Z,,,,0,V,1979.401000011916,,,,,229875.39999997616,229875.30000001192,227879.232,227879.5,227895.899,229879.272,,white
,Fixation,canvas.Screen,3_89_0_0,2022-03-01T10:35:28.401Z,,,,1,A,1833.3699999999953,timeout,,,,231697.89999997616,231695.975,229862.605,229876.5,229879.272,231712.642,,grey
,Stimulus,canvas.Screen,3_89_0_1,2022-03-01T10:35:28.500Z,,,,1,A,100.00200000000768,timeout,,,,231796.89999997616,231795.977,231695.975,231698.19999998808,231712.642,231812.644,,grey
,Reaction,canvas.Screen,3_89_0_2,2022-03-01T10:35:28.866Z,,,,1,A,346.4560000238416,response,,stim_detected,keydown(Space),232163.5,232159.10000002384,231795.977,231797,231812.644,232179.318,,grey
,Trial,flow.Sequence,3_89_0,2022-03-01T10:35:28.867Z,,,,1,A,2279.8280000238447,completion,,,,232163.89999997616,232159.10000002384,229862.605,229876.39999997616,229879.272,232179.318,,grey
,Frame,canvas.Frame,3_89,2022-03-01T10:35:28.867Z,,,,1,A,2284.627999976161,,,,,232164,232163.89999997616,229862.605,229875.5,229879.272,232179.318,,grey
,Fixation,canvas.Screen,3_90_0_0,2022-03-01T10:35:30.635Z,,,,0,V,1766.7019999999902,timeout,,,,233931.89999997616,233929.353,232162.651,232165.10000002384,232179.318,233946.02,,white
,Stimulus,canvas.Screen,3_90_0_1,2022-03-01T10:35:30.734Z,,,,0,V,100.00200000000768,timeout,,,,234031.60000002384,234029.355,233929.353,233932.19999998808,233946.02,234046.022,,white
,Reaction,canvas.Screen,3_90_0_2,2022-03-01T10:35:30.948Z,,,,0,V,194.77800001192372,response,,stim_detected,keydown(Space),234245,234240.80000001192,234029.355,234031.80000001192,234046.022,234262.693,,white
,Trial,flow.Sequence,3_90_0,2022-03-01T10:35:30.948Z,,,,0,V,2061.4820000119216,completion,,,,234245.39999997616,234240.80000001192,232162.651,232165,232179.318,234262.693,,white
,Frame,canvas.Frame,3_90,2022-03-01T10:35:30.948Z,,,,0,V,2066.081999976159,,,,,234245.60000002384,234245.39999997616,232162.651,232164.10000002384,232179.318,234262.693,,white
,Fixation,canvas.Screen,3_91_0_0,2022-03-01T10:35:33.051Z,,,,1,VA,2100.0419999999867,timeout,,,,236347.80000001192,236346.068,234246.026,234246.69999998808,234262.693,236362.735,,white
,Stimulus,canvas.Screen,3_91_0_1,2022-03-01T10:35:33.151Z,,,,1,VA,100.00200000000768,timeout,,,,236448.69999998808,236446.07,236346.068,236347.89999997616,236362.735,236462.737,,white
,Reaction,canvas.Screen,3_91_0_2,2022-03-01T10:35:33.327Z,,,,1,VA,156.06300001192722,response,,stim_detected,keydown(Space),236623.80000001192,236618.80000001192,236446.07,236448.80000001192,236462.737,236629.407,,white
,Trial,flow.Sequence,3_91_0,2022-03-01T10:35:33.327Z,,,,1,VA,2356.1070000119216,completion,,,,236624.10000002384,236618.80000001192,234246.026,234246.60000002384,234262.693,236629.407,,white
,Frame,canvas.Frame,3_91,2022-03-01T10:35:33.327Z,,,,1,VA,2361.4070000238426,,,,,236624.19999998808,236624.10000002384,234246.026,234245.69999998808,234262.693,236629.407,,white
,Fixation,canvas.Screen,3_92_0_0,2022-03-01T10:35:35.468Z,,,,1,A,2150.043000000005,timeout,,,,238764.89999997616,238762.783,236612.74,236626.5,236629.407,238779.45,,grey
,Stimulus,canvas.Screen,3_92_0_1,2022-03-01T10:35:35.567Z,,,,1,A,100.00199999997858,timeout,,,,238864.39999997616,238862.785,238762.783,238765.10000002384,238779.45,238879.452,,grey
,Reaction,canvas.Screen,3_92_0_2,2022-03-01T10:35:35.790Z,,,,1,A,203.04800000000978,response,,stim_detected,keydown(Space),239087.30000001192,239082.5,238862.785,238864.60000002384,238879.452,239096.123,,grey
,Trial,flow.Sequence,3_92_0,2022-03-01T10:35:35.791Z,,,,1,A,2453.0929999999935,completion,,,,239087.60000002384,239082.5,236612.74,236626.39999997616,236629.407,239096.123,,grey
,Frame,canvas.Frame,3_92,2022-03-01T10:35:35.791Z,,,,1,A,2458.2929999880726,,,,,239087.80000001192,239087.69999998808,236612.74,236624.39999997616,236629.407,239096.123,,grey
,Fixation,canvas.Screen,3_93_0_0,2022-03-01T10:35:37.551Z,,,,1,A,1766.7020000000193,timeout,,,,240848.5,240846.158,239079.456,239088.80000001192,239096.123,240862.825,,grey
,Stimulus,canvas.Screen,3_93_0_1,2022-03-01T10:35:37.651Z,,,,1,A,100.00199999997858,timeout,,,,240948.39999997616,240946.16,240846.158,240848.60000002384,240862.825,240962.827,,grey
,Reaction,canvas.Screen,3_93_0_2,2022-03-01T10:35:37.991Z,,,,1,A,320.77300002385164,response,,stim_detected,keydown(Space),241288.39999997616,241283.60000002384,240946.16,240948.60000002384,240962.827,241296.167,,grey
,Trial,flow.Sequence,3_93_0,2022-03-01T10:35:37.992Z,,,,1,A,2187.4770000238495,completion,,,,241288.80000001192,241283.60000002384,239079.456,239088.80000001192,239096.123,241296.167,,grey
,Frame,canvas.Frame,3_93,2022-03-01T10:35:37.992Z,,,,1,A,2192.776999976166,,,,,241288.89999997616,241288.89999997616,239079.456,239087.89999997616,239096.123,241296.167,,grey
,Fixation,canvas.Screen,3_94_0_0,2022-03-01T10:35:39.569Z,,,,1,A,1583.3650000000198,timeout,,,,242865.5,242862.865,241279.5,241290,241296.167,242879.532,,grey
,Stimulus,canvas.Screen,3_94_0_1,2022-03-01T10:35:39.668Z,,,,1,A,100.00200000000768,timeout,,,,242965.39999997616,242962.867,242862.865,242865.69999998808,242879.532,242979.534,,grey
,Reaction,canvas.Screen,3_94_0_2,2022-03-01T10:35:39.880Z,,,,1,A,192.86599997614394,response,,stim_detected,keydown(Space),243177,243172.39999997616,242962.867,242965.5,242979.534,243179.538,,grey
,Trial,flow.Sequence,3_94_0,2022-03-01T10:35:39.880Z,,,,1,A,1876.2329999761714,completion,,,,243177.19999998808,243172.39999997616,241279.5,241289.89999997616,241296.167,243179.538,,grey
,Frame,canvas.Frame,3_94,2022-03-01T10:35:39.880Z,,,,1,A,1881.1330000119342,,,,,243177.5,243177.30000001192,241279.5,241289.10000002384,241296.167,243179.538,,grey
,Fixation,canvas.Screen,3_95_0_0,2022-03-01T10:35:41.752Z,,,,1,VA,1883.3710000000137,timeout,,,,245048.39999997616,245046.242,243162.871,243178.5,243179.538,245062.909,,white
,Stimulus,canvas.Screen,3_95_0_1,2022-03-01T10:35:41.851Z,,,,1,VA,100.00199999997858,timeout,,,,245148.19999998808,245146.244,245046.242,245048.60000002384,245062.909,245162.911,,white
,Reaction,canvas.Screen,3_95_0_2,2022-03-01T10:35:42.034Z,,,,1,VA,163.38900001192815,response,,stim_detected,keydown(Space),245330.80000001192,245326.30000001192,245146.244,245148.39999997616,245162.911,245346.248,,white
,Trial,flow.Sequence,3_95_0,2022-03-01T10:35:42.034Z,,,,1,VA,2146.7620000119205,completion,,,,245331,245326.30000001192,243162.871,243178.39999997616,243179.538,245346.248,,white
,Frame,canvas.Frame,3_95,2022-03-01T10:35:42.034Z,,,,1,VA,2151.5620000238414,,,,,245331.19999998808,245331.10000002384,243162.871,243177.60000002384,243179.538,245346.248,,white
,Fixation,canvas.Screen,3_96_0_0,2022-03-01T10:35:43.802Z,,,,0,V,1766.7020000000193,timeout,,,,247098.5,247096.283,245329.581,245332.19999998808,245346.248,247112.95,,white
,Stimulus,canvas.Screen,3_96_0_1,2022-03-01T10:35:43.901Z,,,,0,V,100.00199999997858,timeout,,,,247197.80000001192,247196.285,247096.283,247098.69999998808,247112.95,247212.952,,white
,Reaction,canvas.Screen,3_96_0_2,2022-03-01T10:35:44.098Z,,,,0,V,177.24799998808885,response,,stim_detected,keydown(Space),247395.10000002384,247390.19999998808,247196.285,247198,247212.952,247396.289,,white
,Trial,flow.Sequence,3_96_0,2022-03-01T10:35:44.098Z,,,,0,V,2043.9519999880868,completion,,,,247395.30000001192,247390.19999998808,245329.581,245332.10000002384,245346.248,247396.289,,white
,Frame,canvas.Frame,3_96,2022-03-01T10:35:44.099Z,,,,0,V,2049.151999976166,,,,,247395.5,247395.39999997616,245329.581,245331.39999997616,245346.248,247396.289,,white
,Fixation,canvas.Screen,3_97_0_0,2022-03-01T10:35:46.018Z,,,,0,V,1933.372000000003,timeout,,,,249315.10000002384,249312.994,247379.622,247396.5,247396.289,249329.661,,white
,Stimulus,canvas.Screen,3_97_0_1,2022-03-01T10:35:46.118Z,,,,0,V,100.00200000000768,timeout,,,,249414.80000001192,249412.996,249312.994,249315.5,249329.661,249429.663,,white
,Reaction,canvas.Screen,3_97_0_2,2022-03-01T10:35:46.339Z,,,,0,V,201.5369999880786,response,,stim_detected,keydown(Space),249635.89999997616,249631.19999998808,249412.996,249415.10000002384,249429.663,249646.334,,white
,Trial,flow.Sequence,3_97_0,2022-03-01T10:35:46.339Z,,,,0,V,2234.9109999880893,completion,,,,249636.10000002384,249631.19999998808,247379.622,247396.39999997616,247396.289,249646.334,,white
,Frame,canvas.Frame,3_97,2022-03-01T10:35:46.340Z,,,,0,V,2239.9109999880893,,,,,249636.30000001192,249636.19999998808,247379.622,247395.60000002384,247396.289,249646.334,,white
,Fixation,canvas.Screen,3_98_0_0,2022-03-01T10:35:48.469Z,,,,1,VA,2133.3759999999893,timeout,,,,251765.30000001192,251763.043,249629.667,249637.39999997616,249646.334,251779.71,,white
,Stimulus,canvas.Screen,3_98_0_1,2022-03-01T10:35:48.568Z,,,,1,VA,100.00200000000768,timeout,,,,251864.69999998808,251863.045,251763.043,251765.5,251779.71,251879.712,,white
,Reaction,canvas.Screen,3_98_0_2,2022-03-01T10:35:48.751Z,,,,1,VA,162.0880000119214,response,,stim_detected,keydown(Space),252047.19999998808,252041.80000001192,251863.045,251864.89999997616,251879.712,252063.049,,white
,Trial,flow.Sequence,3_98_0,2022-03-01T10:35:48.751Z,,,,1,VA,2395.4660000119184,completion,,,,252047.5,252041.80000001192,249629.667,249637.30000001192,249646.334,252063.049,,white
,Frame,canvas.Frame,3_98,2022-03-01T10:35:48.751Z,,,,1,VA,2401.2660000238393,,,,,252047.69999998808,252047.60000002384,249629.667,249636.39999997616,249646.334,252063.049,,white
,Fixation,canvas.Screen,3_99_0_0,2022-03-01T10:35:50.752Z,,,,1,VA,2000.0400000000081,timeout,,,,254048.60000002384,254046.422,252046.382,252048.5,252063.049,254063.089,,white
,Stimulus,canvas.Screen,3_99_0_1,2022-03-01T10:35:50.852Z,,,,1,VA,100.00199999997858,timeout,,,,254148.39999997616,254146.424,254046.422,254048.80000001192,254063.089,254163.091,,white
,Reaction,canvas.Screen,3_99_0_2,2022-03-01T10:35:50.940Z,,,,1,VA,68.70900001193513,response,,stim_detected,keydown(Space),254236.30000001192,254231.80000001192,254146.424,254148.60000002384,254163.091,254296.427,,white
,Trial,flow.Sequence,3_99_0,2022-03-01T10:35:50.940Z,,,,1,VA,2168.751000011922,completion,,,,254236.60000002384,254231.80000001192,252046.382,252048.5,252063.049,254296.427,,white
,Frame,canvas.Frame,3_99,2022-03-01T10:35:50.940Z,,,,1,VA,2173.551000023843,,,,,254236.69999998808,254236.60000002384,252046.382,252047.80000001192,252063.049,254296.427,,white
,Loop,flow.Loop,3,2022-03-01T10:35:50.940Z,,,,,,237228.25200002384,completion,,,,254237,254236.60000002384,16991.681,16995.19999998808,17008.348,254296.427,,
,end,html.Page,4,2022-03-01T10:35:52.689Z,,,,,,1688.472999976162,form submission,,,,255985.69999998808,255984.89999997616,254279.76,254237.10000002384,254296.427,255996.461,,
,root,flow.Sequence,,2022-03-01T10:35:52.690Z,,,,,,254693.53299997616,completion,,,,255986.69999998808,255984.89999997616,1274.7,1273.3999999761581,1291.367,255996.461,,