id,sender,sender_type,sender_id,timestamp,meta,,age,aud,condition,duration,ended_on,gender,response,response_action,time_commit,time_end,time_render,time_run,time_show,time_switch,url,vis
Etheline Tenenbaum,Hello,html.Page,0,2022-03-01T09:14:17.533Z,"{""labjs_version"":""20.2.4"",""labjs_build"":{""flavor"":""development"",""commit"":""f5b4a49f956347addd546a832a3327688c2c0fef""},""location"":""https://labjs.felixhenninger.com/api/labjs_preview/index.html"",""userAgent"":""Mozilla/5.0 (Macintosh; Intel Mac OS X 10_15_7) AppleWebKit/537.36 (KHTML, like Gecko) Chrome/98.0.4758.80 Safari/537.36"",""platform"":""MacIntel"",""language"":""de-DE"",""locale"":""de"",""timeZone"":""Europe/Berlin"",""timezoneOffset"":-60,""screen_width"":1440,""screen_height"":900,""scroll_width"":1440,""scroll_height"":708,""window_innerWidth"":1440,""window_innerHeight"":756,""devicePixelRatio"":1}",,69,,,9561.103000023842,form submission,female,,,10681.900000035763,10680.100000023842,1085.663,1092.300000011921,1118.997,10669.188,{},
,Instructions,html.Page,1,2022-03-01T09:14:18.683Z,,,,,,1161.9120000238418,form submission,,,,11831.900000035763,11831.100000023842,10652.521,10682.300000011921,10669.188,11835.878,,
,Change Background,canvas.Screen,2,2022-03-01T09:14:21.673Z,,,,,,3000.0599999999995,timeout,,,,14821.700000047684,14819.271,11819.211,11832.200000047684,11835.878,14835.938,,
,Fixation,canvas.Screen,3_0_0_0,2022-03-01T09:14:23.373Z,,,,0,V,1700.0340000000015,timeout,,,,16521.700000047684,16519.305,14819.271,14823.100000023842,14835.938,16535.972,,white
,Stimulus,canvas.Screen,3_0_0_1,2022-03-01T09:14:23.472Z,,,,0,V,100.00199999999677,timeout,,,,16621.100000023842,16619.307,16519.305,16522,16535.972,16635.974,,white
,Reaction,canvas.Screen,3_0_0_2,2022-03-01T09:14:23.809Z,,,,0,V,302.92600003576445,response,,stim_detected,keydown(Space),16957.700000047684,16938.900000035763,16619.307,16621.30000001192,16635.974,16952.647,,white
,Trial,flow.Sequence,3_0_0,2022-03-01T09:14:23.809Z,,,,0,V,2102.9620000357627,completion,,,,16957.900000035763,16938.900000035763,14819.271,14823.100000023842,14835.938,16952.647,,white
,Frame,canvas.Frame,3_0,2022-03-01T09:14:23.809Z,,,,0,V,2122.1620000238418,,,,,16958.100000023842,16958.100000023842,14819.271,14822.100000023842,14835.938,16952.647,,white
,Fixation,canvas.Screen,3_1_0_0,2022-03-01T09:14:26.273Z,,,,1,VA,2483.382999999998,timeout,,,,19421.200000047684,19419.363,16935.98,16958.80000001192,16952.647,19436.03,,white
,Stimulus,canvas.Screen,3_1_0_1,2022-03-01T09:14:26.373Z,,,,1,VA,100.00200000000041,timeout,,,,19521.400000035763,19519.365,19419.363,19421.600000023842,19436.03,19536.032,,white
,Reaction,canvas.Screen,3_1_0_2,2022-03-01T09:14:26.611Z,,,,1,VA,219.16800004768447,response,,stim_detected,keydown(Space),19759.700000047684,19755.200000047684,19519.365,19521.700000047684,19536.032,19769.37,,white
,Trial,flow.Sequence,3_1_0,2022-03-01T09:14:26.612Z,,,,1,VA,2802.553000047683,completion,,,,19760.30000001192,19755.200000047684,16935.98,16958.700000047684,16952.647,19769.37,,white
,Frame,canvas.Frame,3_1,2022-03-01T09:14:26.612Z,,,,1,VA,2807.753000035762,,,,,19760.700000047684,19760.400000035763,16935.98,16958.100000023842,16952.647,19769.37,,white
,Fixation,canvas.Screen,3_2_0_0,2022-03-01T09:14:28.273Z,,,,0,V,1666.7000000000007,timeout,,,,21421.900000035763,21419.403,19752.703,19762,19769.37,21436.07,,white
,Stimulus,canvas.Screen,3_2_0_1,2022-03-01T09:14:28.372Z,,,,0,V,100.00200000000041,timeout,,,,21520.600000023842,21519.405,21419.403,21422.100000023842,21436.07,21536.072,,white
,Reaction,canvas.Screen,3_2_0_2,2022-03-01T09:14:28.590Z,,,,0,V,199.82800003576267,response,,stim_detected,keydown(Space),21738.80000001192,21735.900000035763,21519.405,21520.700000047684,21536.072,21752.743,,white
,Trial,flow.Sequence,3_2_0,2022-03-01T09:14:28.590Z,,,,0,V,1966.5300000357638,completion,,,,21739,21735.900000035763,19752.703,19761.80000001192,19769.37,21752.743,,white
,Frame,canvas.Frame,3_2,2022-03-01T09:14:28.590Z,,,,0,V,1969.630000000001,,,,,21739.100000023842,21739,19752.703,19760.900000035763,19769.37,21752.743,,white
,Fixation,canvas.Screen,3_3_0_0,2022-03-01T09:14:30.506Z,,,,0,V,1916.7050000000017,timeout,,,,23654.700000047684,23652.781,21736.076,21739.700000047684,21752.743,23669.448,,white
,Stimulus,canvas.Screen,3_3_0_1,2022-03-01T09:14:30.606Z,,,,0,V,100.00200000000041,timeout,,,,23754.80000001192,23752.783,23652.781,23655,23669.448,23769.45,,white
,Reaction,canvas.Screen,3_3_0_2,2022-03-01T09:14:30.790Z,,,,0,V,164.65000002384113,response,,stim_detected,keydown(Space),23938.700000047684,23934.100000023842,23752.783,23755,23769.45,23952.787,,white
,Trial,flow.Sequence,3_3_0,2022-03-01T09:14:30.790Z,,,,0,V,2181.3570000238433,completion,,,,23939,23934.100000023842,21736.076,21739.700000047684,21752.743,23952.787,,white
,Frame,canvas.Frame,3_3,2022-03-01T09:14:30.790Z,,,,0,V,2186.2570000000014,,,,,23939.100000023842,23939,21736.076,21739.100000023842,21752.743,23952.787,,white
,Fixation,canvas.Screen,3_4_0_0,2022-03-01T09:14:33.105Z,,,,1,A,2316.7129999999997,timeout,,,,26253.700000047684,26252.833,23936.12,23940.400000035763,23952.787,26269.5,,grey
,Stimulus,canvas.Screen,3_4_0_1,2022-03-01T09:14:33.206Z,,,,1,A,100.00200000000041,timeout,,,,26354.600000023842,26352.835,26252.833,26253.80000001192,26269.5,26369.502,,grey
,Reaction,canvas.Screen,3_4_0_2,2022-03-01T09:14:33.424Z,,,,1,A,200.29800001192052,response,,stim_detected,keydown(Space),26573.100000023842,26569.80000001192,26352.835,26354.700000047684,26369.502,26586.173,,grey
,Trial,flow.Sequence,3_4_0,2022-03-01T09:14:33.425Z,,,,1,A,2617.0130000119207,completion,,,,26573.30000001192,26569.80000001192,23936.12,23940.30000001192,23952.787,26586.173,,grey
,Frame,canvas.Frame,3_4,2022-03-01T09:14:33.425Z,,,,1,A,2620.5130000119207,,,,,26573.600000023842,26573.30000001192,23936.12,23939.200000047684,23952.787,26586.173,,grey
,Fixation,canvas.Screen,3_5_0_0,2022-03-01T09:14:35.157Z,,,,0,V,1733.3680000000022,timeout,,,,28305.600000023842,28302.874,26569.506,26574.200000047684,26586.173,28319.541,,white
,Stimulus,canvas.Screen,3_5_0_1,2022-03-01T09:14:35.256Z,,,,0,V,100.00200000000041,timeout,,,,28405.100000023842,28402.876,28302.874,28305.900000035763,28319.541,28419.543,,white
,Reaction,canvas.Screen,3_5_0_2,2022-03-01T09:14:35.472Z,,,,0,V,196.15700004768223,response,,stim_detected,keydown(Space),28620.30000001192,28615.700000047684,28402.876,28405.30000001192,28419.543,28636.214,,white
,Trial,flow.Sequence,3_5_0,2022-03-01T09:14:35.472Z,,,,0,V,2029.5270000476849,completion,,,,28620.600000023842,28615.700000047684,26569.506,26574.200000047684,26586.173,28636.214,,white
,Frame,canvas.Frame,3_5,2022-03-01T09:14:35.472Z,,,,0,V,2034.427000023843,,,,,28620.80000001192,28620.600000023842,26569.506,26573.700000047684,26586.173,28636.214,,white
,Fixation,canvas.Screen,3_6_0_0,2022-03-01T09:14:37.657Z,,,,0,V,2183.3770000000004,timeout,,,,30805.80000001192,30802.924,28619.547,28622,28636.214,30819.591,,white
,Stimulus,canvas.Screen,3_6_0_1,2022-03-01T09:14:37.757Z,,,,0,V,100.00200000000041,timeout,,,,30905.200000047684,30902.926,30802.924,30805.900000035763,30819.591,30919.593,,white
,Reaction,canvas.Screen,3_6_0_2,2022-03-01T09:14:37.986Z,,,,0,V,210.0070000238411,response,,stim_detected,keydown(Space),31134.200000047684,31129.600000023842,30902.926,30905.400000035763,30919.593,31136.264,,white
,Trial,flow.Sequence,3_6_0,2022-03-01T09:14:37.986Z,,,,0,V,2493.386000023842,completion,,,,31134.5,31129.600000023842,28619.547,28621.900000035763,28636.214,31136.264,,white
,Frame,canvas.Frame,3_6,2022-03-01T09:14:37.986Z,,,,0,V,2498.386000023842,,,,,31134.700000047684,31134.600000023842,28619.547,28621,28636.214,31136.264,,white
,Fixation,canvas.Screen,3_7_0_0,2022-03-01T09:14:40.090Z,,,,0,V,2116.708999999999,timeout,,,,33238.90000003576,33236.306,31119.597,31135.80000001192,31136.264,33252.973,,white
,Stimulus,canvas.Screen,3_7_0_1,2022-03-01T09:14:40.190Z,,,,0,V,100.00200000000041,timeout,,,,33338.80000001192,33336.308,33236.306,33239.200000047684,33252.973,33352.975,,white
,Reaction,canvas.Screen,3_7_0_2,2022-03-01T09:14:40.362Z,,,,0,V,152.6250000238433,response,,stim_detected,keydown(Space),33510.200000047684,33505.60000002384,33336.308,33338.90000003576,33352.975,33519.645,,white
,Trial,flow.Sequence,3_7_0,2022-03-01T09:14:40.362Z,,,,0,V,2369.3360000238426,completion,,,,33510.5,33505.60000002384,31119.597,31135.700000047684,31136.264,33519.645,,white
,Frame,canvas.Frame,3_7,2022-03-01T09:14:40.362Z,,,,0,V,2374.3360000238426,,,,,33510.700000047684,33510.60000002384,31119.597,31134.80000001192,31136.264,33519.645,,white
,Fixation,canvas.Screen,3_8_0_0,2022-03-01T09:14:42.057Z,,,,0,V,1700.0339999999997,timeout,,,,35205.700000047684,35203.012,33502.978,33511.90000003576,33519.645,35219.679,,white
,Stimulus,canvas.Screen,3_8_0_1,2022-03-01T09:14:42.157Z,,,,0,V,100.00200000000041,timeout,,,,35305.5,35303.014,35203.012,35205.80000001192,35219.679,35319.681,,white
,Reaction,canvas.Screen,3_8_0_2,2022-03-01T09:14:42.371Z,,,,0,V,195.919000023845,response,,stim_detected,keydown(Space),35520,35515.60000002384,35303.014,35305.700000047684,35319.681,35536.352,,white
,Trial,flow.Sequence,3_8_0,2022-03-01T09:14:42.372Z,,,,0,V,1995.955000023845,completion,,,,35520.30000001192,35515.60000002384,33502.978,33511.80000001192,33519.645,35536.352,,white
,Frame,canvas.Frame,3_8,2022-03-01T09:14:42.372Z,,,,0,V,2000.6550000119241,,,,,35520.5,35520.30000001192,33502.978,33510.80000001192,33519.645,35536.352,,white
,Fixation,canvas.Screen,3_9_0_0,2022-03-01T09:14:44.623Z,,,,1,A,2250.0449999999983,timeout,,,,37771.60000002384,37769.73,35519.685,35521.5,35536.352,37786.397,,grey
,Stimulus,canvas.Screen,3_9_0_1,2022-03-01T09:14:44.723Z,,,,1,A,100.00200000000041,timeout,,,,37871.10000002384,37869.732,37769.73,37771.80000001192,37786.397,37886.399,,grey
,Reaction,canvas.Screen,3_9_0_2,2022-03-01T09:14:45.019Z,,,,1,A,276.8010000476861,response,,stim_detected,keydown(Space),38167.90000003576,38163.200000047684,37869.732,37871.30000001192,37886.399,38169.738,,grey
,Trial,flow.Sequence,3_9_0,2022-03-01T09:14:45.020Z,,,,1,A,2626.8480000476848,completion,,,,38168.200000047684,38163.200000047684,35519.685,35521.5,35536.352,38169.738,,grey
,Frame,canvas.Frame,3_9,2022-03-01T09:14:45.020Z,,,,1,A,2631.948000011922,,,,,38168.40000003576,38168.30000001192,35519.685,35520.60000002384,35536.352,38169.738,,grey
,Fixation,canvas.Screen,3_10_0_0,2022-03-01T09:14:47.257Z,,,,1,VA,2250.0450000000055,timeout,,,,40405.30000001192,40403.116,38153.071,38169.40000003576,38169.738,40419.783,,white
,Stimulus,canvas.Screen,3_10_0_1,2022-03-01T09:14:47.357Z,,,,1,VA,100.00200000000041,timeout,,,,40505.90000003576,40503.118,40403.116,40405.5,40419.783,40519.785,,white
,Reaction,canvas.Screen,3_10_0_2,2022-03-01T09:14:47.558Z,,,,1,VA,182.31500002383837,response,,stim_detected,keydown(Space),40706.80000001192,40702.10000002384,40503.118,40506,40519.785,40719.789,,white
,Trial,flow.Sequence,3_10_0,2022-03-01T09:14:47.559Z,,,,1,VA,2532.3620000238443,completion,,,,40707.10000002384,40702.10000002384,38153.071,38169.40000003576,38169.738,40719.789,,white
,Frame,canvas.Frame,3_10,2022-03-01T09:14:47.559Z,,,,1,VA,2537.462000047686,,,,,40707.40000003576,40707.200000047684,38153.071,38168.5,38169.738,40719.789,,white
,Fixation,canvas.Screen,3_11_0_0,2022-03-01T09:14:49.407Z,,,,1,VA,1850.037000000004,timeout,,,,42555.40000003576,42553.159,40703.122,40708.40000003576,40719.789,42569.826,,white
,Stimulus,canvas.Screen,3_11_0_1,2022-03-01T09:14:49.507Z,,,,1,VA,100.00200000000041,timeout,,,,42655.10000002384,42653.161,42553.159,42555.60000002384,42569.826,42669.828,,white
,Reaction,canvas.Screen,3_11_0_2,2022-03-01T09:14:49.690Z,,,,1,VA,164.17199999999866,response,,stim_detected,keydown(Space),42838.80000001192,42834,42653.161,42655.30000001192,42669.828,42853.165,,white
,Trial,flow.Sequence,3_11_0,2022-03-01T09:14:49.691Z,,,,1,VA,2114.211000000003,completion,,,,42839,42834,40703.122,40708.30000001192,40719.789,42853.165,,white
,Frame,canvas.Frame,3_11,2022-03-01T09:14:49.691Z,,,,1,VA,2119.311000023845,,,,,42839.30000001192,42839.10000002384,40703.122,40707.5,40719.789,42853.165,,white
,Fixation,canvas.Screen,3_12_0_0,2022-03-01T09:14:51.957Z,,,,1,A,2266.7119999999995,timeout,,,,45105.80000001192,45103.21,42836.498,42840.30000001192,42853.165,45119.877,,grey
,Stimulus,canvas.Screen,3_12_0_1,2022-03-01T09:14:52.057Z,,,,1,A,100.00200000000041,timeout,,,,45205.700000047684,45203.212,45103.21,45106,45119.877,45219.879,,grey
,Reaction,canvas.Screen,3_12_0_2,2022-03-01T09:14:52.351Z,,,,1,A,274.9210000119201,response,,stim_detected,keydown(Space),45499.60000002384,45494.80000001192,45203.212,45205.80000001192,45219.879,45503.218,,grey
,Trial,flow.Sequence,3_12_0,2022-03-01T09:14:52.351Z,,,,1,A,2641.63500001192,completion,,,,45499.80000001192,45494.80000001192,42836.498,42840.200000047684,42853.165,45503.218,,grey
,Frame,canvas.Frame,3_12,2022-03-01T09:14:52.352Z,,,,1,A,2646.735000035762,,,,,45499.90000003576,45499.90000003576,42836.498,42839.40000003576,42853.165,45503.218,,grey
,Fixation,canvas.Screen,3_13_0_0,2022-03-01T09:14:54.457Z,,,,1,VA,2116.7090000000026,timeout,,,,47605.60000002384,47603.26,45486.551,45500.80000001192,45503.218,47619.927,,white
,Stimulus,canvas.Screen,3_13_0_1,2022-03-01T09:14:54.557Z,,,,1,VA,100.00199999999313,timeout,,,,47705.5,47703.262,47603.26,47605.80000001192,47619.927,47719.929,,white
,Reaction,canvas.Screen,3_13_0_2,2022-03-01T09:14:54.760Z,,,,1,VA,183.6710000238454,response,,stim_detected,keydown(Space),47908.5,47903.60000002384,47703.262,47705.700000047684,47719.929,47919.933,,white
,Trial,flow.Sequence,3_13_0,2022-03-01T09:14:54.760Z,,,,1,VA,2400.382000023841,completion,,,,47908.80000001192,47903.60000002384,45486.551,45500.80000001192,45503.218,47919.933,,white
,Frame,canvas.Frame,3_13,2022-03-01T09:14:54.761Z,,,,1,VA,2405.7819999999992,,,,,47909.10000002384,47909,45486.551,45500.10000002384,45503.218,47919.933,,white
,Fixation,canvas.Screen,3_14_0_0,2022-03-01T09:14:56.607Z,,,,0,V,1850.037000000004,timeout,,,,49755.40000003576,49753.303,47903.266,47910.200000047684,47919.933,49769.97,,white
,Stimulus,canvas.Screen,3_14_0_1,2022-03-01T09:14:56.707Z,,,,0,V,100.00200000000041,timeout,,,,49855.30000001192,49853.305,49753.303,49755.60000002384,49769.97,49869.972,,white
,Reaction,canvas.Screen,3_14_0_2,2022-03-01T09:14:56.938Z,,,,0,V,211.82800001191936,response,,stim_detected,keydown(Space),50086.5,50081.80000001192,49853.305,49855.40000003576,49869.972,50103.31,,white
,Trial,flow.Sequence,3_14_0,2022-03-01T09:14:56.938Z,,,,0,V,2161.8670000119237,completion,,,,50086.80000001192,50081.80000001192,47903.266,47910.10000002384,47919.933,50103.31,,white
,Frame,canvas.Frame,3_14,2022-03-01T09:14:56.939Z,,,,0,V,2166.9670000357655,,,,,50086.90000003576,50086.90000003576,47903.266,47909.30000001192,47919.933,50103.31,,white
,Fixation,canvas.Screen,3_15_0_0,2022-03-01T09:14:58.906Z,,,,0,V,1966.7060000000056,timeout,,,,52054.30000001192,52053.349,50086.643,50088,50103.31,52070.016,,white
,Stimulus,canvas.Screen,3_15_0_1,2022-03-01T09:14:59.006Z,,,,0,V,100.00199999999313,timeout,,,,52154.5,52153.351,52053.349,52054.5,52070.016,52170.018,,white
,Reaction,canvas.Screen,3_15_0_2,2022-03-01T09:14:59.194Z,,,,0,V,167.58200002384547,response,,stim_detected,keydown(Space),52342,52337.60000002384,52153.351,52154.700000047684,52170.018,52353.355,,white
,Trial,flow.Sequence,3_15_0,2022-03-01T09:14:59.194Z,,,,0,V,2234.290000023844,completion,,,,52342.30000001192,52337.60000002384,50086.643,50088,50103.31,52353.355,,white
,Frame,canvas.Frame,3_15,2022-03-01T09:14:59.194Z,,,,0,V,2239.090000035765,,,,,52342.60000002384,52342.40000003576,50086.643,50087.10000002384,50103.31,52353.355,,white
,Fixation,canvas.Screen,3_16_0_0,2022-03-01T09:15:01.024Z,,,,1,A,1833.3699999999953,timeout,,,,54172.200000047684,54170.058,52336.688,52343.700000047684,52353.355,54186.725,,grey
,Stimulus,canvas.Screen,3_16_0_1,2022-03-01T09:15:01.123Z,,,,1,A,100.00200000000041,timeout,,,,54271.80000001192,54270.06,54170.058,54172.40000003576,54186.725,54286.727,,grey
,Reaction,canvas.Screen,3_16_0_2,2022-03-01T09:15:01.297Z,,,,1,A,153.67300003576383,response,,stim_detected,keydown(Space),54445.60000002384,54440.40000003576,54270.06,54272,54286.727,54453.397,,grey
,Trial,flow.Sequence,3_16_0,2022-03-01T09:15:01.298Z,,,,1,A,2087.0450000357596,completion,,,,54445.90000003576,54440.40000003576,52336.688,52343.60000002384,52353.355,54453.397,,grey
,Frame,canvas.Frame,3_16,2022-03-01T09:15:01.298Z,,,,1,A,2092.644999999997,,,,,54446.10000002384,54446,52336.688,52342.700000047684,52353.355,54453.397,,grey
,Fixation,canvas.Screen,3_17_0_0,2022-03-01T09:15:03.056Z,,,,1,A,1766.7020000000048,timeout,,,,56204.80000001192,56203.432,54436.73,54447.30000001192,54453.397,56220.099,,grey
,Stimulus,canvas.Screen,3_17_0_1,2022-03-01T09:15:03.157Z,,,,1,A,100.00200000000041,timeout,,,,56305.200000047684,56303.434,56203.432,56205.10000002384,56220.099,56320.101,,grey
,Reaction,canvas.Screen,3_17_0_2,2022-03-01T09:15:03.363Z,,,,1,A,185.99900002383947,response,,stim_detected,keydown(Space),56511.60000002384,56506.10000002384,56303.434,56305.40000003576,56320.101,56520.105,,grey
,Trial,flow.Sequence,3_17_0,2022-03-01T09:15:03.364Z,,,,1,A,2052.7030000238447,completion,,,,56511.90000003576,56506.10000002384,54436.73,54447.10000002384,54453.397,56520.105,,grey
,Frame,canvas.Frame,3_17,2022-03-01T09:15:03.364Z,,,,1,A,2058.603000000003,,,,,56512.10000002384,56512,54436.73,54446.30000001192,54453.397,56520.105,,grey
,Fixation,canvas.Screen,3_18_0_0,2022-03-01T09:15:05.308Z,,,,1,A,1950.038999999997,timeout,,,,58455.90000003576,58453.477,56503.438,56513.30000001192,56520.105,58470.144,,grey
,Stimulus,canvas.Screen,3_18_0_1,2022-03-01T09:15:05.407Z,,,,1,A,100.00200000000041,timeout,,,,58555.5,58553.479,58453.477,58456.200000047684,58470.144,58570.146,,grey
,Reaction,canvas.Screen,3_18_0_2,2022-03-01T09:15:05.670Z,,,,1,A,244.05400004768308,response,,stim_detected,keydown(Space),58818.40000003576,58814.200000047684,58553.479,58555.700000047684,58570.146,58820.151,,grey
,Trial,flow.Sequence,3_18_0,2022-03-01T09:15:05.670Z,,,,1,A,2294.0950000476805,completion,,,,58818.700000047684,58814.200000047684,56503.438,56513.200000047684,56520.105,58820.151,,grey
,Frame,canvas.Frame,3_18,2022-03-01T09:15:05.671Z,,,,1,A,2298.6950000119177,,,,,58818.90000003576,58818.80000001192,56503.438,56512.200000047684,56520.105,58820.151,,grey
,Fixation,canvas.Screen,3_19_0_0,2022-03-01T09:15:07.958Z,,,,0,V,2300.046000000002,timeout,,,,61105.90000003576,61103.53,58803.484,58819.90000003576,58820.151,61120.197,,white
,Stimulus,canvas.Screen,3_19_0_1,2022-03-01T09:15:08.058Z,,,,0,V,100.00200000000041,timeout,,,,61206,61203.532,61103.53,61106.200000047684,61120.197,61220.199,,white
,Reaction,canvas.Screen,3_19_0_2,2022-03-01T09:15:08.221Z,,,,0,V,144.80099999999948,response,,stim_detected,keydown(Space),61369.30000001192,61365,61203.532,61206.200000047684,61220.199,61386.869,,white
,Trial,flow.Sequence,3_19_0,2022-03-01T09:15:08.221Z,,,,0,V,2544.849000000002,completion,,,,61369.60000002384,61365,58803.484,58819.90000003576,58820.151,61386.869,,white
,Frame,canvas.Frame,3_19,2022-03-01T09:15:08.222Z,,,,0,V,2549.5490000476857,,,,,61369.80000001192,61369.700000047684,58803.484,58819,58820.151,61386.869,,white
,Fixation,canvas.Screen,3_20_0_0,2022-03-01T09:15:10.691Z,,,,1,VA,2466.7160000000003,timeout,,,,63839.40000003576,63836.918,61370.202,61371,61386.869,63853.585,,white
,Stimulus,canvas.Screen,3_20_0_1,2022-03-01T09:15:10.790Z,,,,1,VA,100.00200000000041,timeout,,,,63938.60000002384,63936.92,63836.918,63839.60000002384,63853.585,63953.587,,white
,Reaction,canvas.Screen,3_20_0_2,2022-03-01T09:15:10.973Z,,,,1,VA,163.2130000119214,response,,stim_detected,keydown(Space),64121.40000003576,64116.80000001192,63936.92,63938.80000001192,63953.587,64136.924,,white
,Trial,flow.Sequence,3_20_0,2022-03-01T09:15:10.974Z,,,,1,VA,2729.931000011922,completion,,,,64122,64116.80000001192,61370.202,61370.90000003576,61386.869,64136.924,,white
,Frame,canvas.Frame,3_20,2022-03-01T09:15:10.974Z,,,,1,VA,2735.231000023843,,,,,64122.30000001192,64122.10000002384,61370.202,61369.90000003576,61386.869,64136.924,,white
,Fixation,canvas.Screen,3_21_0_0,2022-03-01T09:15:12.958Z,,,,1,A,1983.3730000000069,timeout,,,,66106.40000003576,66103.63,64120.257,64123.30000001192,64136.924,66120.297,,grey
,Stimulus,canvas.Screen,3_21_0_1,2022-03-01T09:15:13.058Z,,,,1,A,100.00199999999313,timeout,,,,66206.10000002384,66203.632,66103.63,66106.60000002384,66120.297,66220.299,,grey
,Reaction,canvas.Screen,3_21_0_2,2022-03-01T09:15:13.266Z,,,,1,A,189.40100004768465,response,,stim_detected,keydown(Space),66414.30000001192,66409.70000004768,66203.632,66206.30000001192,66220.299,66420.303,,grey
,Trial,flow.Sequence,3_21_0,2022-03-01T09:15:13.267Z,,,,1,A,2272.7760000476846,completion,,,,66415.20000004768,66409.70000004768,64120.257,64123.30000001192,64136.924,66420.303,,grey
,Frame,canvas.Frame,3_21,2022-03-01T09:15:13.267Z,,,,1,A,2278.376000011922,,,,,66415.40000003576,66415.30000001192,64120.257,64122.40000003576,64136.924,66420.303,,grey
,Fixation,canvas.Screen,3_22_0_0,2022-03-01T09:15:15.424Z,,,,1,A,2166.7100000000064,timeout,,,,68572.40000003576,68570.346,66403.636,66416.5,66420.303,68587.013,,grey
,Stimulus,canvas.Screen,3_22_0_1,2022-03-01T09:15:15.524Z,,,,1,A,100.00199999999313,timeout,,,,68672.40000003576,68670.348,68570.346,68572.60000002384,68587.013,68687.015,,grey
,Reaction,canvas.Screen,3_22_0_2,2022-03-01T09:15:15.729Z,,,,1,A,185.48500000000058,response,,stim_detected,keydown(Space),68877.30000001192,68872.5,68670.348,68672.60000002384,68687.015,68887.019,,grey
,Trial,flow.Sequence,3_22_0,2022-03-01T09:15:15.730Z,,,,1,A,2452.197,completion,,,,68877.80000001192,68872.5,66403.636,66416.5,66420.303,68887.019,,grey
,Frame,canvas.Frame,3_22,2022-03-01T09:15:15.730Z,,,,1,A,2457.597000035763,,,,,68878,68877.90000003576,66403.636,66415.60000002384,66420.303,68887.019,,grey
,Fixation,canvas.Screen,3_23_0_0,2022-03-01T09:15:17.507Z,,,,1,A,1783.369000000006,timeout,,,,70655.20000004768,70653.721,68870.352,68879,68887.019,70670.388,,grey
,Stimulus,canvas.Screen,3_23_0_1,2022-03-01T09:15:17.608Z,,,,1,A,100.00199999999313,timeout,,,,70756.20000004768,70753.723,70653.721,70655.40000003576,70670.388,70770.39,,grey
,Reaction,canvas.Screen,3_23_0_2,2022-03-01T09:15:17.835Z,,,,1,A,208.01000003576337,response,,stim_detected,keydown(Space),70982.80000001192,70978.40000003576,70753.723,70756.5,70770.39,70987.061,,grey
,Trial,flow.Sequence,3_23_0,2022-03-01T09:15:17.835Z,,,,1,A,2091.3810000357626,completion,,,,70983.10000002384,70978.40000003576,68870.352,68879,68887.019,70987.061,,grey
,Frame,canvas.Frame,3_23,2022-03-01T09:15:17.835Z,,,,1,A,2096.1810000476835,,,,,70983.40000003576,70983.20000004768,68870.352,68878.10000002384,68887.019,70987.061,,grey
,Fixation,canvas.Screen,3_24_0_0,2022-03-01T09:15:19.724Z,,,,0,V,1900.0380000000005,timeout,,,,72872.60000002384,72870.432,70970.394,70984.40000003576,70987.061,72887.099,,white
,Stimulus,canvas.Screen,3_24_0_1,2022-03-01T09:15:19.825Z,,,,0,V,100.00199999999313,timeout,,,,72973.20000004768,72970.434,72870.432,72872.70000004768,72887.099,72987.101,,white
,Reaction,canvas.Screen,3_24_0_2,2022-03-01T09:15:20.062Z,,,,0,V,218.29900003576768,response,,stim_detected,keydown(Space),73210.10000002384,73205.40000003576,72970.434,72973.30000001192,72987.101,73220.439,,white
,Trial,flow.Sequence,3_24_0,2022-03-01T09:15:20.062Z,,,,0,V,2218.3390000357613,completion,,,,73210.40000003576,73205.40000003576,70970.394,70984.40000003576,70987.061,73220.439,,white
,Frame,canvas.Frame,3_24,2022-03-01T09:15:20.062Z,,,,0,V,2223.4389999999985,,,,,73210.60000002384,73210.5,70970.394,70983.5,70987.061,73220.439,,white
,Fixation,canvas.Screen,3_25_0_0,2022-03-01T09:15:21.674Z,,,,1,VA,1616.6990000000078,timeout,,,,74822.40000003576,74820.471,73203.772,73211.60000002384,73220.439,74837.138,,white
,Stimulus,canvas.Screen,3_25_0_1,2022-03-01T09:15:21.774Z,,,,1,VA,100.00199999999313,timeout,,,,74921.70000004768,74920.473,74820.471,74822.60000002384,74837.138,74937.14,,white
,Reaction,canvas.Screen,3_25_0_2,2022-03-01T09:15:21.977Z,,,,1,VA,183.1600000119215,response,,stim_detected,keydown(Space),75125,75120.30000001192,74920.473,74921.90000003576,74937.14,75137.144,,white
,Trial,flow.Sequence,3_25_0,2022-03-01T09:15:21.978Z,,,,1,VA,1899.8610000119224,completion,,,,75125.70000004768,75120.30000001192,73203.772,73211.60000002384,73220.439,75137.144,,white
,Frame,canvas.Frame,3_25,2022-03-01T09:15:21.978Z,,,,1,VA,1905.3610000119224,,,,,75125.90000003576,75125.80000001192,73203.772,73210.70000004768,73220.439,75137.144,,white
,Fixation,canvas.Screen,3_26_0_0,2022-03-01T09:15:24.291Z,,,,1,VA,2316.7130000000034,timeout,,,,77439.40000003576,77437.19,75120.477,75127.10000002384,75137.144,77453.857,,white
,Stimulus,canvas.Screen,3_26_0_1,2022-03-01T09:15:24.392Z,,,,1,VA,100.00199999999313,timeout,,,,77539.70000004768,77537.192,77437.19,77439.60000002384,77453.857,77553.859,,white
,Reaction,canvas.Screen,3_26_0_2,2022-03-01T09:15:24.617Z,,,,1,VA,207.34100004768698,response,,stim_detected,keydown(Space),77765.60000002384,77761.20000004768,77537.192,77539.90000003576,77553.859,77770.53,,white
,Trial,flow.Sequence,3_26_0,2022-03-01T09:15:24.618Z,,,,1,VA,2624.0560000476835,completion,,,,77765.90000003576,77761.20000004768,75120.477,75127,75137.144,77770.53,,white
,Frame,canvas.Frame,3_26,2022-03-01T09:15:24.618Z,,,,1,VA,2628.7560000357626,,,,,77766.10000002384,77765.90000003576,75120.477,75126.10000002384,75137.144,77770.53,,white
,Fixation,canvas.Screen,3_27_0_0,2022-03-01T09:15:26.808Z,,,,1,VA,2200.0439999999944,timeout,,,,79956.20000004768,79953.907,77753.863,77767.10000002384,77770.53,79970.574,,white
,Stimulus,canvas.Screen,3_27_0_1,2022-03-01T09:15:26.908Z,,,,1,VA,100.00200000000768,timeout,,,,80055.80000001192,80053.909,79953.907,79956.30000001192,79970.574,80070.576,,white
,Reaction,canvas.Screen,3_27_0_2,2022-03-01T09:15:27.111Z,,,,1,VA,183.42399999999907,response,,stim_detected,keydown(Space),80258.70000004768,80254,80053.909,80056,80070.576,80270.58,,white
,Trial,flow.Sequence,3_27_0,2022-03-01T09:15:27.111Z,,,,1,VA,2483.470000000001,completion,,,,80259,80254,77753.863,77767,77770.53,80270.58,,white
,Frame,canvas.Frame,3_27,2022-03-01T09:15:27.111Z,,,,1,VA,2488.570000023843,,,,,80259.10000002384,80259.10000002384,77753.863,77766.20000004768,77770.53,80270.58,,white
,Fixation,canvas.Screen,3_28_0_0,2022-03-01T09:15:29.391Z,,,,1,A,2283.379000000001,timeout,,,,82539.20000004768,82537.292,80253.913,80260.20000004768,80270.58,82553.959,,grey
,Stimulus,canvas.Screen,3_28_0_1,2022-03-01T09:15:29.491Z,,,,1,A,100.00199999999313,timeout,,,,82639.40000003576,82637.294,82537.292,82539.5,82553.959,82653.961,,grey
,Reaction,canvas.Screen,3_28_0_2,2022-03-01T09:15:29.720Z,,,,1,A,209.9390000357671,response,,stim_detected,keydown(Space),82868.5,82863.90000003576,82637.294,82639.70000004768,82653.961,82903.966,,grey
,Trial,flow.Sequence,3_28_0,2022-03-01T09:15:29.721Z,,,,1,A,2593.320000035761,completion,,,,82868.90000003576,82863.90000003576,80253.913,80260.20000004768,80270.58,82903.966,,grey
,Frame,canvas.Frame,3_28,2022-03-01T09:15:29.721Z,,,,1,A,2598.320000035761,,,,,82869,82868.90000003576,80253.913,80259.30000001192,80270.58,82903.966,,grey
,Fixation,canvas.Screen,3_29_0_0,2022-03-01T09:15:31.391Z,,,,0,V,1650.0329999999958,timeout,,,,84538.80000001192,84537.332,82853.965,82870,82903.966,84553.999,,white
,Stimulus,canvas.Screen,3_29_0_1,2022-03-01T09:15:31.491Z,,,,0,V,100.00200000000768,timeout,,,,84639.20000004768,84637.334,84537.332,84539,84553.999,84654.001,,white
,Reaction,canvas.Screen,3_29_0_2,2022-03-01T09:15:31.812Z,,,,0,V,301.7990000119171,response,,stim_detected,keydown(Space),84960.40000003576,84955.80000001192,84637.334,84639.30000001192,84654.001,84970.674,,white
,Trial,flow.Sequence,3_29_0,2022-03-01T09:15:31.813Z,,,,0,V,2051.8340000119206,completion,,,,84960.70000004768,84955.80000001192,82853.965,82869.90000003576,82903.966,84970.674,,white
,Frame,canvas.Frame,3_29,2022-03-01T09:15:31.813Z,,,,0,V,2056.8340000119206,,,,,84960.90000003576,84960.80000001192,82853.965,82869.10000002384,82903.966,84970.674,,white
,Fixation,canvas.Screen,3_30_0_0,2022-03-01T09:15:33.608Z,,,,0,V,1800.0360000000073,timeout,,,,86756.20000004768,86754.043,84954.007,84961.90000003576,84970.674,86770.71,,white
,Stimulus,canvas.Screen,3_30_0_1,2022-03-01T09:15:33.707Z,,,,0,V,100.00199999999313,timeout,,,,86855.20000004768,86854.045,86754.043,86756.40000003576,86770.71,86870.712,,white
,Reaction,canvas.Screen,3_30_0_2,2022-03-01T09:15:33.966Z,,,,0,V,238.98800004768418,response,,stim_detected,keydown(Space),87113.90000003576,87109.70000004768,86854.045,86855.40000003576,86870.712,87120.717,,white
,Trial,flow.Sequence,3_30_0,2022-03-01T09:15:33.966Z,,,,0,V,2139.0260000476846,completion,,,,87114.10000002384,87109.70000004768,84954.007,84961.80000001192,84970.674,87120.717,,white
,Frame,canvas.Frame,3_30,2022-03-01T09:15:33.966Z,,,,0,V,2143.5260000476846,,,,,87114.40000003576,87114.20000004768,84954.007,84961,84970.674,87120.717,,white
,Fixation,canvas.Screen,3_31_0_0,2022-03-01T09:15:35.609Z,,,,1,VA,1650.0329999999958,timeout,,,,88756.80000001192,88754.083,87104.05,87115.5,87120.717,88770.75,,white
,Stimulus,canvas.Screen,3_31_0_1,2022-03-01T09:15:35.709Z,,,,1,VA,100.00199999999313,timeout,,,,88856.70000004768,88854.085,88754.083,88757,88770.75,88870.752,,white
,Reaction,canvas.Screen,3_31_0_2,2022-03-01T09:15:35.928Z,,,,1,VA,200.94800004769058,response,,stim_detected,keydown(Space),89075.90000003576,89071.70000004768,88854.085,88856.80000001192,88870.752,89087.423,,white
,Trial,flow.Sequence,3_31_0,2022-03-01T09:15:35.928Z,,,,1,VA,1950.9830000476795,completion,,,,89076.10000002384,89071.70000004768,87104.05,87115.30000001192,87120.717,89087.423,,white
,Frame,canvas.Frame,3_31,2022-03-01T09:15:35.928Z,,,,1,VA,1955.4830000476795,,,,,89076.20000004768,89076.20000004768,87104.05,87114.40000003576,87120.717,89087.423,,white
,Fixation,canvas.Screen,3_32_0_0,2022-03-01T09:15:38.325Z,,,,0,V,2400.04800000001,timeout,,,,91472.70000004768,91470.804,89070.756,89076.90000003576,89087.423,91487.471,,white
,Stimulus,canvas.Screen,3_32_0_1,2022-03-01T09:15:38.425Z,,,,0,V,100.00199999999313,timeout,,,,91572.90000003576,91570.806,91470.804,91472.90000003576,91487.471,91587.473,,white
,Reaction,canvas.Screen,3_32_0_2,2022-03-01T09:15:38.649Z,,,,0,V,204.92700003576465,response,,stim_detected,keydown(Space),91797.10000002384,91792.40000003576,91570.806,91573.30000001192,91587.473,91804.144,,white
,Trial,flow.Sequence,3_32_0,2022-03-01T09:15:38.649Z,,,,0,V,2704.9770000357676,completion,,,,91797.40000003576,91792.40000003576,89070.756,89076.80000001192,89087.423,91804.144,,white
,Frame,canvas.Frame,3_32,2022-03-01T09:15:38.650Z,,,,0,V,2709.9770000357676,,,,,91797.60000002384,91797.40000003576,89070.756,89076.20000004768,89087.423,91804.144,,white
,Fixation,canvas.Screen,3_33_0_0,2022-03-01T09:15:40.292Z,,,,1,A,1650.0329999999958,timeout,,,,93439.70000004768,93437.51,91787.477,91798.70000004768,91804.144,93454.177,,grey
,Stimulus,canvas.Screen,3_33_0_1,2022-03-01T09:15:40.390Z,,,,1,A,100.00200000000768,timeout,,,,93538.5,93537.512,93437.51,93439.80000001192,93454.177,93554.179,,grey
,Reaction,canvas.Screen,3_33_0_2,2022-03-01T09:15:40.659Z,,,,1,A,248.1210000119172,response,,stim_detected,keydown(Space),93807.10000002384,93802.30000001192,93537.512,93538.60000002384,93554.179,93820.851,,grey
,Trial,flow.Sequence,3_33_0,2022-03-01T09:15:40.659Z,,,,1,A,1998.1560000119207,completion,,,,93807.40000003576,93802.30000001192,91787.477,91798.70000004768,91804.144,93820.851,,grey
,Frame,canvas.Frame,3_33,2022-03-01T09:15:40.660Z,,,,1,A,2003.2560000357626,,,,,93807.60000002384,93807.40000003576,91787.477,91797.70000004768,91804.144,93820.851,,grey
,Fixation,canvas.Screen,3_34_0_0,2022-03-01T09:15:43.009Z,,,,1,A,2350.047000000006,timeout,,,,96156.5,96154.231,93804.184,93808.60000002384,93820.851,96170.898,,grey
,Stimulus,canvas.Screen,3_34_0_1,2022-03-01T09:15:43.108Z,,,,1,A,100.00199999999313,timeout,,,,96256.5,96254.233,96154.231,96156.70000004768,96170.898,96270.9,,grey
,Reaction,canvas.Screen,3_34_0_2,2022-03-01T09:15:43.402Z,,,,1,A,274.2000000238477,response,,stim_detected,keydown(Space),96549.70000004768,96545.10000002384,96254.233,96256.60000002384,96270.9,96554.239,,grey
,Trial,flow.Sequence,3_34_0,2022-03-01T09:15:43.402Z,,,,1,A,2724.2490000238467,completion,,,,96550,96545.10000002384,93804.184,93808.60000002384,93820.851,96554.239,,grey
,Frame,canvas.Frame,3_34,2022-03-01T09:15:43.402Z,,,,1,A,2729.2490000238467,,,,,96550.30000001192,96550.10000002384,93804.184,93807.70000004768,93820.851,96554.239,,grey
,Fixation,canvas.Screen,3_35_0_0,2022-03-01T09:15:45.575Z,,,,1,A,2183.376999999993,timeout,,,,98722.5,98720.949,96537.572,96551.30000001192,96554.239,98737.616,,grey
,Stimulus,canvas.Screen,3_35_0_1,2022-03-01T09:15:45.675Z,,,,1,A,100.00200000000768,timeout,,,,98823,98820.951,98720.949,98722.70000004768,98737.616,98837.618,,grey
,Reaction,canvas.Screen,3_35_0_2,2022-03-01T09:15:45.985Z,,,,1,A,290.48200002383965,response,,stim_detected,keydown(Space),99132.80000001192,99128.10000002384,98820.951,98823.10000002384,98837.618,99137.624,,grey
,Trial,flow.Sequence,3_35_0,2022-03-01T09:15:45.985Z,,,,1,A,2573.8610000238405,completion,,,,99133.20000004768,99128.10000002384,96537.572,96551.20000004768,96554.239,99137.624,,grey
,Frame,canvas.Frame,3_35,2022-03-01T09:15:45.985Z,,,,1,A,2579.0610000119195,,,,,99133.30000001192,99133.30000001192,96537.572,96550.40000003576,96554.239,99137.624,,grey
,Fixation,canvas.Screen,3_36_0_0,2022-03-01T09:15:48.159Z,,,,1,A,2183.3770000000077,timeout,,,,101306.90000003576,101304.334,99120.957,99134.40000003576,99137.624,101321.001,,grey
,Stimulus,canvas.Screen,3_36_0_1,2022-03-01T09:15:48.258Z,,,,1,A,100.00199999999313,timeout,,,,101406.20000004768,101404.336,101304.334,101307.10000002384,101321.001,101421.003,,grey
,Reaction,canvas.Screen,3_36_0_2,2022-03-01T09:15:48.470Z,,,,1,A,191.79700001192396,response,,stim_detected,keydown(Space),101617.5,101612.80000001192,101404.336,101406.40000003576,101421.003,101621.007,,grey
,Trial,flow.Sequence,3_36_0,2022-03-01T09:15:48.470Z,,,,1,A,2475.1760000119248,completion,,,,101617.80000001192,101612.80000001192,99120.957,99134.30000001192,99137.624,101621.007,,grey
,Frame,canvas.Frame,3_36,2022-03-01T09:15:48.470Z,,,,1,A,2480.2760000357666,,,,,101618,101617.90000003576,99120.957,99133.5,99137.624,101621.007,,grey
,Fixation,canvas.Screen,3_37_0_0,2022-03-01T09:15:50.876Z,,,,1,VA,2416.7149999999965,timeout,,,,104023.80000001192,104021.055,101604.34,101619.10000002384,101621.007,104037.722,,white
,Stimulus,canvas.Screen,3_37_0_1,2022-03-01T09:15:50.974Z,,,,1,VA,100.00200000000768,timeout,,,,104122.10000002384,104121.057,104021.055,104024.10000002384,104037.722,104137.724,,white
,Reaction,canvas.Screen,3_37_0_2,2022-03-01T09:15:51.224Z,,,,1,VA,230.77599999999802,response,,stim_detected,keydown(Space),104371.5,104368.5,104121.057,104122.30000001192,104137.724,104387.729,,white
,Trial,flow.Sequence,3_37_0,2022-03-01T09:15:51.224Z,,,,1,VA,2747.493000000002,completion,,,,104371.70000004768,104368.5,101604.34,101618.90000003576,101621.007,104387.729,,white
,Frame,canvas.Frame,3_37,2022-03-01T09:15:51.224Z,,,,1,VA,2750.793000011923,,,,,104371.80000001192,104371.80000001192,101604.34,101618.10000002384,101621.007,104387.729,,white
,Fixation,canvas.Screen,3_38_0_0,2022-03-01T09:15:53.258Z,,,,1,VA,2033.3739999999962,timeout,,,,106406.20000004768,106404.436,104371.062,104372.70000004768,104387.729,106421.103,,white
,Stimulus,canvas.Screen,3_38_0_1,2022-03-01T09:15:53.359Z,,,,1,VA,100.00199999999313,timeout,,,,106506.70000004768,106504.438,106404.436,106406.5,106421.103,106521.105,,white
,Reaction,canvas.Screen,3_38_0_2,2022-03-01T09:15:53.563Z,,,,1,VA,185.39500000000407,response,,stim_detected,keydown(Space),106710.90000003576,106706.5,106504.438,106506.90000003576,106521.105,106721.109,,white
,Trial,flow.Sequence,3_38_0,2022-03-01T09:15:53.563Z,,,,1,VA,2318.7709999999934,completion,,,,106711.30000001192,106706.5,104371.062,104372.60000002384,104387.729,106721.109,,white
,Frame,canvas.Frame,3_38,2022-03-01T09:15:53.564Z,,,,1,VA,2323.5710000119143,,,,,106711.5,106711.30000001192,104371.062,104371.80000001192,104387.729,106721.109,,white
,Fixation,canvas.Screen,3_39_0_0,2022-03-01T09:15:55.141Z,,,,1,VA,1583.3650000000052,timeout,,,,108288.90000003576,108287.807,106704.442,106712.60000002384,106721.109,108304.474,,white
,Stimulus,canvas.Screen,3_39_0_1,2022-03-01T09:15:55.242Z,,,,1,VA,100.00199999999313,timeout,,,,108390.30000001192,108387.809,108287.807,108289.10000002384,108304.474,108404.476,,white
,Reaction,canvas.Screen,3_39_0_2,2022-03-01T09:15:55.482Z,,,,1,VA,220.82400001192582,response,,stim_detected,keydown(Space),108629.80000001192,108625.30000001192,108387.809,108390.60000002384,108404.476,108671.148,,white
,Trial,flow.Sequence,3_39_0,2022-03-01T09:15:55.483Z,,,,1,VA,1904.1910000119242,completion,,,,108630.90000003576,108625.30000001192,106704.442,106712.5,106721.109,108671.148,,white
,Frame,canvas.Frame,3_39,2022-03-01T09:15:55.483Z,,,,1,VA,1909.9910000238451,,,,,108631.20000004768,108631.10000002384,106704.442,106711.70000004768,106721.109,108671.148,,white
,Fixation,canvas.Screen,3_40_0_0,2022-03-01T09:15:57.976Z,,,,0,V,2466.7160000000003,timeout,,,,111123.70000004768,111121.197,108654.481,108632.20000004768,108671.148,111137.864,,white
,Stimulus,canvas.Screen,3_40_0_1,2022-03-01T09:15:58.076Z,,,,0,V,100.00199999999313,timeout,,,,111224.20000004768,111221.199,111121.197,111123.90000003576,111137.864,111237.866,,white
,Reaction,canvas.Screen,3_40_0_2,2022-03-01T09:15:58.306Z,,,,0,V,211.4340000119264,response,,stim_detected,keydown(Space),111453.90000003576,111449.30000001192,111221.199,111224.40000003576,111237.866,111471.204,,white
,Trial,flow.Sequence,3_40_0,2022-03-01T09:15:58.306Z,,,,0,V,2778.15200001192,completion,,,,111454.20000004768,111449.30000001192,108654.481,108632.20000004768,108671.148,111471.204,,white
,Frame,canvas.Frame,3_40,2022-03-01T09:15:58.307Z,,,,0,V,2783.15200001192,,,,,111454.5,111454.30000001192,108654.481,108631.30000001192,108671.148,111471.204,,white
,Fixation,canvas.Screen,3_41_0_0,2022-03-01T09:16:00.325Z,,,,0,V,2016.7069999999949,timeout,,,,113472.60000002384,113471.244,111454.537,111455.5,111471.204,113487.911,,white
,Stimulus,canvas.Screen,3_41_0_1,2022-03-01T09:16:00.426Z,,,,0,V,100.00200000000768,timeout,,,,113573.80000001192,113571.246,113471.244,113472.80000001192,113487.911,113587.913,,white
,Reaction,canvas.Screen,3_41_0_2,2022-03-01T09:16:00.635Z,,,,0,V,190.28700004768325,response,,stim_detected,keydown(Space),113782.5,113778.20000004768,113571.246,113574,113587.913,113787.917,,white
,Trial,flow.Sequence,3_41_0,2022-03-01T09:16:00.635Z,,,,0,V,2306.996000047686,completion,,,,113782.70000004768,113778.20000004768,111454.537,111455.40000003576,111471.204,113787.917,,white
,Frame,canvas.Frame,3_41,2022-03-01T09:16:00.635Z,,,,0,V,2311.596000011923,,,,,113782.80000001192,113782.80000001192,111454.537,111454.60000002384,111471.204,113787.917,,white
,Fixation,canvas.Screen,3_42_0_0,2022-03-01T09:16:03.009Z,,,,1,VA,2383.380999999994,timeout,,,,116156.90000003576,116154.631,113771.25,113785,113787.917,116171.298,,white
,Stimulus,canvas.Screen,3_42_0_1,2022-03-01T09:16:03.109Z,,,,1,VA,100.00200000000768,timeout,,,,116256.70000004768,116254.633,116154.631,116157.30000001192,116171.298,116271.3,,white
,Reaction,canvas.Screen,3_42_0_2,2022-03-01T09:16:03.252Z,,,,1,VA,123.80000002383895,response,,stim_detected,keydown(Space),116399.90000003576,116395.10000002384,116254.633,116256.90000003576,116271.3,116404.636,,white
,Trial,flow.Sequence,3_42_0,2022-03-01T09:16:03.252Z,,,,1,VA,2607.1830000238406,completion,,,,116400.10000002384,116395.10000002384,113771.25,113785,113787.917,116404.636,,white
,Frame,canvas.Frame,3_42,2022-03-01T09:16:03.253Z,,,,1,VA,2612.3830000119196,,,,,116400.40000003576,116400.30000001192,113771.25,113783,113787.917,116404.636,,white
,Fixation,canvas.Screen,3_43_0_0,2022-03-01T09:16:05.176Z,,,,1,VA,1933.372000000003,timeout,,,,118323.30000001192,118321.341,116387.969,116401.5,116404.636,118338.008,,white
,Stimulus,canvas.Screen,3_43_0_1,2022-03-01T09:16:05.275Z,,,,1,VA,100.00199999999313,timeout,,,,118422.60000002384,118421.343,118321.341,118323.60000002384,118338.008,118438.01,,white
,Reaction,canvas.Screen,3_43_0_2,2022-03-01T09:16:05.453Z,,,,1,VA,157.99000000000524,response,,stim_detected,keydown(Space),118600.60000002384,118596,118421.343,118422.70000004768,118438.01,118604.68,,white
,Trial,flow.Sequence,3_43_0,2022-03-01T09:16:05.453Z,,,,1,VA,2191.3640000000014,completion,,,,118600.90000003576,118596,116387.969,116401.40000003576,116404.636,118604.68,,white
,Frame,canvas.Frame,3_43,2022-03-01T09:16:05.453Z,,,,1,VA,2196.264000035764,,,,,118601,118600.90000003576,116387.969,116400.5,116404.636,118604.68,,white
,Fixation,canvas.Screen,3_44_0_0,2022-03-01T09:16:07.492Z,,,,1,VA,2050.041000000012,timeout,,,,120640.10000002384,120638.054,118588.013,118602.20000004768,118604.68,120654.721,,white
,Stimulus,canvas.Screen,3_44_0_1,2022-03-01T09:16:07.591Z,,,,1,VA,100.00199999999313,timeout,,,,120738.90000003576,120738.056,120638.054,120640.30000001192,120654.721,120754.723,,white
,Reaction,canvas.Screen,3_44_0_2,2022-03-01T09:16:07.757Z,,,,1,VA,146.17700003576465,response,,stim_detected,keydown(Space),120905.20000004768,120900.90000003576,120738.056,120739.10000002384,120754.723,120921.393,,white
,Trial,flow.Sequence,3_44_0,2022-03-01T09:16:07.758Z,,,,1,VA,2296.2200000357698,completion,,,,120905.5,120900.90000003576,118588.013,118602.20000004768,118604.68,120921.393,,white
,Frame,canvas.Frame,3_44,2022-03-01T09:16:07.758Z,,,,1,VA,2300.920000023849,,,,,120905.70000004768,120905.60000002384,118588.013,118601.20000004768,118604.68,120921.393,,white
,Fixation,canvas.Screen,3_45_0_0,2022-03-01T09:16:09.659Z,,,,0,V,1900.0380000000005,timeout,,,,122807,122804.764,120904.726,120906.80000001192,120921.393,122821.431,,white
,Stimulus,canvas.Screen,3_45_0_1,2022-03-01T09:16:09.758Z,,,,0,V,100.00200000000768,timeout,,,,122905.70000004768,122904.766,122804.764,122807.20000004768,122821.431,122921.433,,white
,Reaction,canvas.Screen,3_45_0_2,2022-03-01T09:16:09.956Z,,,,0,V,177.26700004767918,response,,stim_detected,keydown(Space),123103.30000001192,123098.70000004768,122904.766,122905.90000003576,122921.433,123121.437,,white
,Trial,flow.Sequence,3_45_0,2022-03-01T09:16:09.957Z,,,,0,V,2177.3070000476873,completion,,,,123104.30000001192,123098.70000004768,120904.726,120906.80000001192,120921.393,123121.437,,white
,Frame,canvas.Frame,3_45,2022-03-01T09:16:09.957Z,,,,0,V,2183.0070000357664,,,,,123104.60000002384,123104.40000003576,120904.726,120905.80000001192,120921.393,123121.437,,white
,Fixation,canvas.Screen,3_46_0_0,2022-03-01T09:16:11.726Z,,,,0,V,1766.7019999999902,timeout,,,,124873.5,124871.472,123104.77,123105.5,123121.437,124888.139,,white
,Stimulus,canvas.Screen,3_46_0_1,2022-03-01T09:16:11.825Z,,,,0,V,100.00200000000768,timeout,,,,124972.30000001192,124971.474,124871.472,124873.80000001192,124888.139,124988.141,,white
,Reaction,canvas.Screen,3_46_0_2,2022-03-01T09:16:12.006Z,,,,0,V,161.4590000238386,response,,stim_detected,keydown(Space),125154,125149.60000002384,124971.474,124972.5,124988.141,125171.478,,white
,Trial,flow.Sequence,3_46_0,2022-03-01T09:16:12.007Z,,,,0,V,2028.1630000238365,completion,,,,125154.30000001192,125149.60000002384,123104.77,123105.5,123121.437,125171.478,,white
,Frame,canvas.Frame,3_46,2022-03-01T09:16:12.007Z,,,,0,V,2032.9630000357574,,,,,125154.5,125154.40000003576,123104.77,123104.60000002384,123121.437,125171.478,,white
,Fixation,canvas.Screen,3_47_0_0,2022-03-01T09:16:13.876Z,,,,1,VA,1883.3709999999992,timeout,,,,127024,127021.515,125154.811,125155.60000002384,125171.478,127054.849,,white
,Stimulus,canvas.Screen,3_47_0_1,2022-03-01T09:16:13.993Z,,,,1,VA,100.00199999999313,timeout,,,,127140.80000001192,127138.184,127021.515,127024.20000004768,127054.849,127154.851,,white
,Reaction,canvas.Screen,3_47_0_2,2022-03-01T09:16:14.163Z,,,,1,VA,150.6490000000049,response,,stim_detected,keydown(Space),127310.30000001192,127305.5,127138.184,127141.10000002384,127154.851,127321.521,,white
,Trial,flow.Sequence,3_47_0,2022-03-01T09:16:14.163Z,,,,1,VA,2134.021999999997,completion,,,,127310.80000001192,127305.5,125154.811,125155.60000002384,125171.478,127321.521,,white
,Frame,canvas.Frame,3_47,2022-03-01T09:16:14.163Z,,,,1,VA,2139.322000011918,,,,,127311,127310.80000001192,125154.811,125154.60000002384,125171.478,127321.521,,white
,Fixation,canvas.Screen,3_48_0_0,2022-03-01T09:16:16.209Z,,,,0,V,2050.041000000012,timeout,,,,129356.90000003576,129354.895,127304.854,127312,127321.521,129371.562,,white
,Stimulus,canvas.Screen,3_48_0_1,2022-03-01T09:16:16.310Z,,,,0,V,100.00199999999313,timeout,,,,129457.10000002384,129454.897,129354.895,129357.10000002384,129371.562,129471.564,,white
,Reaction,canvas.Screen,3_48_0_2,2022-03-01T09:16:16.484Z,,,,0,V,155.8360000357643,response,,stim_detected,keydown(Space),129631.60000002384,129627.40000003576,129454.897,129457.40000003576,129471.564,129638.234,,white
,Trial,flow.Sequence,3_48_0,2022-03-01T09:16:16.484Z,,,,0,V,2305.8790000357694,completion,,,,129631.90000003576,129627.40000003576,127304.854,127311.90000003576,127321.521,129638.234,,white
,Frame,canvas.Frame,3_48,2022-03-01T09:16:16.485Z,,,,0,V,2310.5790000238485,,,,,129632.20000004768,129632.10000002384,127304.854,127311,127321.521,129638.234,,white
,Fixation,canvas.Screen,3_49_0_0,2022-03-01T09:16:18.943Z,,,,1,A,2466.716000000015,timeout,,,,132090.70000004768,132088.283,129621.567,129633.10000002384,129638.234,132104.95,,grey
,Stimulus,canvas.Screen,3_49_0_1,2022-03-01T09:16:19.043Z,,,,1,A,100.00199999997858,timeout,,,,132190.90000003576,132188.285,132088.283,132090.90000003576,132104.95,132204.952,,grey
,Reaction,canvas.Screen,3_49_0_2,2022-03-01T09:16:19.305Z,,,,1,A,243.2480000476935,response,,stim_detected,keydown(Space),132452.90000003576,132448.20000004768,132188.285,132191.10000002384,132204.952,132454.957,,grey
,Trial,flow.Sequence,3_49_0,2022-03-01T09:16:19.306Z,,,,1,A,2809.966000047687,completion,,,,132453.20000004768,132448.20000004768,129621.567,129633.10000002384,129638.234,132454.957,,grey
,Frame,canvas.Frame,3_49,2022-03-01T09:16:19.306Z,,,,1,A,2815.166000035766,,,,,132453.40000003576,132453.40000003576,129621.567,129632.30000001192,129638.234,132454.957,,grey
,Fixation,canvas.Screen,3_50_0_0,2022-03-01T09:16:21.459Z,,,,1,A,2166.709999999992,timeout,,,,134606.90000003576,134605,132438.29,132454.5,132454.957,134621.667,,grey
,Stimulus,canvas.Screen,3_50_0_1,2022-03-01T09:16:21.560Z,,,,1,A,100.00200000000768,timeout,,,,134707.30000001192,134705.002,134605,134607.10000002384,134621.667,134721.669,,grey
,Reaction,canvas.Screen,3_50_0_2,2022-03-01T09:16:21.815Z,,,,1,A,236.3310000000056,response,,stim_detected,keydown(Space),134962.20000004768,134958,134705.002,134707.5,134721.669,134971.674,,grey
,Trial,flow.Sequence,3_50_0,2022-03-01T09:16:21.815Z,,,,1,A,2503.043000000005,completion,,,,134962.5,134958,132438.29,132454.40000003576,132454.957,134971.674,,grey
,Frame,canvas.Frame,3_50,2022-03-01T09:16:21.815Z,,,,1,A,2507.643000023847,,,,,134962.70000004768,134962.60000002384,132438.29,132453.5,132454.957,134971.674,,grey
,Fixation,canvas.Screen,3_51_0_0,2022-03-01T09:16:23.359Z,,,,1,VA,1550.0309999999881,timeout,,,,136506.80000001192,136505.038,134955.007,134963.70000004768,134971.674,136521.705,,white
,Stimulus,canvas.Screen,3_51_0_1,2022-03-01T09:16:23.460Z,,,,1,VA,100.00200000000768,timeout,,,,136607.10000002384,136605.04,136505.038,136506.90000003576,136521.705,136621.707,,white
,Reaction,canvas.Screen,3_51_0_2,2022-03-01T09:16:23.745Z,,,,1,VA,267.1930000357679,response,,stim_detected,keydown(Space),136892.80000001192,136888.90000003576,136605.04,136607.30000001192,136621.707,136905.046,,white
,Trial,flow.Sequence,3_51_0,2022-03-01T09:16:23.746Z,,,,1,VA,1917.2260000357637,completion,,,,136893.10000002384,136888.90000003576,134955.007,134963.60000002384,134971.674,136905.046,,white
,Frame,canvas.Frame,3_51,2022-03-01T09:16:23.746Z,,,,1,VA,1921.5260000476846,,,,,136893.20000004768,136893.20000004768,134955.007,134962.80000001192,134971.674,136905.046,,white
,Fixation,canvas.Screen,3_52_0_0,2022-03-01T09:16:25.426Z,,,,1,A,1683.3669999999984,timeout,,,,138573.30000001192,138571.746,136888.379,136894.10000002384,136905.046,138588.413,,grey
,Stimulus,canvas.Screen,3_52_0_1,2022-03-01T09:16:25.526Z,,,,1,A,100.00200000000768,timeout,,,,138673.60000002384,138671.748,138571.746,138573.5,138588.413,138688.415,,grey
,Reaction,canvas.Screen,3_52_0_2,2022-03-01T09:16:25.917Z,,,,1,A,371.48500003575464,response,,stim_detected,keydown(Space),139064.60000002384,139059.90000003576,138671.748,138673.80000001192,138688.415,139071.756,,grey
,Trial,flow.Sequence,3_52_0,2022-03-01T09:16:25.917Z,,,,1,A,2154.8540000357607,completion,,,,139064.90000003576,139059.90000003576,136888.379,136894,136905.046,139071.756,,grey
,Frame,canvas.Frame,3_52,2022-03-01T09:16:25.917Z,,,,1,A,2159.8540000357607,,,,,139065,139064.90000003576,136888.379,136893.30000001192,136905.046,139071.756,,grey
,Fixation,canvas.Screen,3_53_0_0,2022-03-01T09:16:27.510Z,,,,1,A,1600.0320000000065,timeout,,,,140657.40000003576,140655.121,139055.089,139066,139071.756,140671.788,,grey
,Stimulus,canvas.Screen,3_53_0_1,2022-03-01T09:16:27.609Z,,,,1,A,100.00200000000768,timeout,,,,140756.10000002384,140755.123,140655.121,140657.60000002384,140671.788,140771.79,,grey
,Reaction,canvas.Screen,3_53_0_2,2022-03-01T09:16:27.984Z,,,,1,A,355.8100000238337,response,,stim_detected,keydown(Space),141132,141127.60000002384,140755.123,140756.30000001192,140771.79,141138.464,,grey
,Trial,flow.Sequence,3_53_0,2022-03-01T09:16:27.985Z,,,,1,A,2055.844000023848,completion,,,,141132.30000001192,141127.60000002384,139055.089,139066,139071.756,141138.464,,grey
,Frame,canvas.Frame,3_53,2022-03-01T09:16:27.985Z,,,,1,A,2060.544000011927,,,,,141132.5,141132.30000001192,139055.089,139065.10000002384,139071.756,141138.464,,grey
,Fixation,canvas.Screen,3_54_0_0,2022-03-01T09:16:30.043Z,,,,1,VA,2066.707999999984,timeout,,,,143190.80000001192,143188.505,141121.797,141133.5,141138.464,143205.172,,white
,Stimulus,canvas.Screen,3_54_0_1,2022-03-01T09:16:30.143Z,,,,1,VA,100.00200000000768,timeout,,,,143291,143288.507,143188.505,143191.10000002384,143205.172,143305.174,,white
,Reaction,canvas.Screen,3_54_0_2,2022-03-01T09:16:30.376Z,,,,1,VA,214.4260000238428,response,,stim_detected,keydown(Space),143524,143519.60000002384,143288.507,143291.10000002384,143305.174,143538.512,,white
,Trial,flow.Sequence,3_54_0,2022-03-01T09:16:30.377Z,,,,1,VA,2381.1360000238346,completion,,,,143524.30000001192,143519.60000002384,141121.797,141133.5,141138.464,143538.512,,white
,Frame,canvas.Frame,3_54,2022-03-01T09:16:30.377Z,,,,1,VA,2385.9360000357556,,,,,143524.5,143524.40000003576,141121.797,141132.60000002384,141138.464,143538.512,,white
,Fixation,canvas.Screen,3_55_0_0,2022-03-01T09:16:32.059Z,,,,1,VA,1683.3669999999984,timeout,,,,145206.30000001192,145205.212,143521.845,143525.60000002384,143538.512,145221.879,,white
,Stimulus,canvas.Screen,3_55_0_1,2022-03-01T09:16:32.159Z,,,,1,VA,100.00200000000768,timeout,,,,145306.80000001192,145305.214,145205.212,145206.5,145221.879,145321.881,,white
,Reaction,canvas.Screen,3_55_0_2,2022-03-01T09:16:32.364Z,,,,1,VA,186.41900001192698,response,,stim_detected,keydown(Space),145511.60000002384,145508.30000001192,145305.214,145307,145321.881,145521.885,,white
,Trial,flow.Sequence,3_55_0,2022-03-01T09:16:32.364Z,,,,1,VA,1969.788000011933,completion,,,,145511.90000003576,145508.30000001192,143521.845,143525.40000003576,143538.512,145521.885,,white
,Frame,canvas.Frame,3_55,2022-03-01T09:16:32.364Z,,,,1,VA,1973.388000035775,,,,,145511.90000003576,145511.90000003576,143521.845,143524.60000002384,143538.512,145521.885,,white
,Fixation,canvas.Screen,3_56_0_0,2022-03-01T09:16:34.560Z,,,,1,VA,2200.0439999999944,timeout,,,,147707.20000004768,147705.262,145505.218,145512.60000002384,145521.885,147721.929,,white
,Stimulus,canvas.Screen,3_56_0_1,2022-03-01T09:16:34.660Z,,,,1,VA,100.00200000000768,timeout,,,,147807.5,147805.264,147705.262,147707.40000003576,147721.929,147821.931,,white
,Reaction,canvas.Screen,3_56_0_2,2022-03-01T09:16:34.840Z,,,,1,VA,161.2690000476723,response,,stim_detected,keydown(Space),147987.80000001192,147983.20000004768,147805.264,147807.60000002384,147821.931,148005.268,,white
,Trial,flow.Sequence,3_56_0,2022-03-01T09:16:34.841Z,,,,1,VA,2461.3150000476744,completion,,,,147988.10000002384,147983.20000004768,145505.218,145512.60000002384,145521.885,148005.268,,white
,Frame,canvas.Frame,3_56,2022-03-01T09:16:34.841Z,,,,1,VA,2466.2150000238325,,,,,147988.30000001192,147988.10000002384,145505.218,145512,145521.885,148005.268,,white
,Fixation,canvas.Screen,3_57_0_0,2022-03-01T09:16:36.877Z,,,,1,VA,2033.3739999999816,timeout,,,,150024.30000001192,150021.975,147988.601,147989.30000001192,148005.268,150038.642,,white
,Stimulus,canvas.Screen,3_57_0_1,2022-03-01T09:16:36.976Z,,,,1,VA,100.00200000000768,timeout,,,,150123.5,150121.977,150021.975,150024.5,150038.642,150138.644,,white
,Reaction,canvas.Screen,3_57_0_2,2022-03-01T09:16:37.152Z,,,,1,VA,155.6560000119207,response,,stim_detected,keydown(Space),150299,150294.30000001192,150121.977,150123.60000002384,150138.644,150305.314,,white
,Trial,flow.Sequence,3_57_0,2022-03-01T09:16:37.152Z,,,,1,VA,2289.03200001191,completion,,,,150299.30000001192,150294.30000001192,147988.601,147989.30000001192,148005.268,150305.314,,white
,Frame,canvas.Frame,3_57,2022-03-01T09:16:37.152Z,,,,1,VA,2294.132000035752,,,,,150299.5,150299.40000003576,147988.601,147988.40000003576,148005.268,150305.314,,white
,Fixation,canvas.Screen,3_58_0_0,2022-03-01T09:16:38.927Z,,,,1,A,1800.0359999999928,timeout,,,,152074,152072.016,150288.647,150300.5,150305.314,152105.35,,grey
,Stimulus,canvas.Screen,3_58_0_1,2022-03-01T09:16:39.043Z,,,,1,A,100.00200000000768,timeout,,,,152190.20000004768,152188.685,152072.016,152074.20000004768,152105.35,152205.352,,grey
,Reaction,canvas.Screen,3_58_0_2,2022-03-01T09:16:39.319Z,,,,1,A,256.74800002382835,response,,stim_detected,keydown(Space),152466.40000003576,152462.10000002384,152188.685,152190.5,152205.352,152472.024,,grey
,Trial,flow.Sequence,3_58_0,2022-03-01T09:16:39.319Z,,,,1,A,2156.786000023829,completion,,,,152466.70000004768,152462.10000002384,150288.647,150300.40000003576,150305.314,152472.024,,grey
,Frame,canvas.Frame,3_58,2022-03-01T09:16:39.319Z,,,,1,A,2161.3860000476707,,,,,152466.90000003576,152466.70000004768,150288.647,150299.60000002384,150305.314,152472.024,,grey
,Fixation,canvas.Screen,3_59_0_0,2022-03-01T09:16:41.643Z,,,,0,V,2333.3800000000047,timeout,,,,154790.80000001192,154788.737,152455.357,152468.10000002384,152472.024,154805.404,,white
,Stimulus,canvas.Screen,3_59_0_1,2022-03-01T09:16:41.744Z,,,,0,V,100.00199999997858,timeout,,,,154891.30000001192,154888.739,154788.737,154791,154805.404,154905.406,,white
,Reaction,canvas.Screen,3_59_0_2,2022-03-01T09:16:41.947Z,,,,0,V,184.59400000001187,response,,stim_detected,keydown(Space),155094.80000001192,155090,154888.739,154891.5,154905.406,155105.41,,white
,Trial,flow.Sequence,3_59_0,2022-03-01T09:16:41.948Z,,,,0,V,2617.975999999995,completion,,,,155095.20000004768,155090,152455.357,152468,152472.024,155105.41,,white
,Frame,canvas.Frame,3_59,2022-03-01T09:16:41.948Z,,,,0,V,2623.176000047679,,,,,155095.40000003576,155095.20000004768,152455.357,152467,152472.024,155105.41,,white
,Fixation,canvas.Screen,3_60_0_0,2022-03-01T09:16:44.144Z,,,,0,V,2200.0439999999944,timeout,,,,157291.10000002384,157288.787,155088.743,155096.40000003576,155105.41,157305.454,,white
,Stimulus,canvas.Screen,3_60_0_1,2022-03-01T09:16:44.243Z,,,,0,V,100.00200000000768,timeout,,,,157390.80000001192,157388.789,157288.787,157291.30000001192,157305.454,157405.456,,white
,Reaction,canvas.Screen,3_60_0_2,2022-03-01T09:16:44.496Z,,,,0,V,233.4440000357572,response,,stim_detected,keydown(Space),157643.20000004768,157638.90000003576,157388.789,157391,157405.456,157655.461,,white
,Trial,flow.Sequence,3_60_0,2022-03-01T09:16:44.496Z,,,,0,V,2533.4900000357593,completion,,,,157643.60000002384,157638.90000003576,155088.743,155096.30000001192,155105.41,157655.461,,white
,Frame,canvas.Frame,3_60,2022-03-01T09:16:44.496Z,,,,0,V,2538.29000004768,,,,,157643.90000003576,157643.70000004768,155088.743,155095.5,155105.41,157655.461,,white
,Fixation,canvas.Screen,3_61_0_0,2022-03-01T09:16:46.877Z,,,,1,A,2383.380999999994,timeout,,,,160024.70000004768,160022.175,157638.794,157644.90000003576,157655.461,160038.842,,grey
,Stimulus,canvas.Screen,3_61_0_1,2022-03-01T09:16:46.977Z,,,,1,A,100.00200000000768,timeout,,,,160124.5,160122.177,160022.175,160024.90000003576,160038.842,160138.844,,grey
,Reaction,canvas.Screen,3_61_0_2,2022-03-01T09:16:47.230Z,,,,1,A,233.85600004767184,response,,stim_detected,keydown(Space),160377.60000002384,160372.70000004768,160122.177,160124.70000004768,160138.844,160388.849,,grey
,Trial,flow.Sequence,3_61_0,2022-03-01T09:16:47.230Z,,,,1,A,2717.2390000476735,completion,,,,160377.80000001192,160372.70000004768,157638.794,157644.80000001192,157655.461,160388.849,,grey
,Frame,canvas.Frame,3_61,2022-03-01T09:16:47.231Z,,,,1,A,2722.3390000119107,,,,,160378,160377.80000001192,157638.794,157644,157655.461,160388.849,,grey
,Fixation,canvas.Screen,3_62_0_0,2022-03-01T09:16:48.893Z,,,,0,V,1666.7000000000116,timeout,,,,162040.80000001192,162038.882,160372.182,160378.90000003576,160388.849,162055.549,,white
,Stimulus,canvas.Screen,3_62_0_1,2022-03-01T09:16:48.993Z,,,,0,V,100.00200000000768,timeout,,,,162140.10000002384,162138.884,162038.882,162041,162055.549,162155.551,,white
,Reaction,canvas.Screen,3_62_0_2,2022-03-01T09:16:49.281Z,,,,0,V,268.14900004767696,response,,stim_detected,keydown(Space),162427.90000003576,162423.70000004768,162138.884,162140.20000004768,162155.551,162472.224,,white
,Trial,flow.Sequence,3_62_0,2022-03-01T09:16:49.282Z,,,,0,V,2034.8510000476963,completion,,,,162429.10000002384,162423.70000004768,160372.182,160378.90000003576,160388.849,162472.224,,white
,Frame,canvas.Frame,3_62,2022-03-01T09:16:49.282Z,,,,0,V,2040.4510000119335,,,,,162429.5,162429.30000001192,160372.182,160378.10000002384,160388.849,162472.224,,white
,Fixation,canvas.Screen,3_63_0_0,2022-03-01T09:16:51.727Z,,,,0,V,2416.7150000000256,timeout,,,,164874,164872.272,162455.557,162430.60000002384,162472.224,164888.939,,white
,Stimulus,canvas.Screen,3_63_0_1,2022-03-01T09:16:51.827Z,,,,0,V,100.00199999997858,timeout,,,,164974.5,164972.274,164872.272,164874.20000004768,164888.939,164988.941,,white
,Reaction,canvas.Screen,3_63_0_2,2022-03-01T09:16:52.040Z,,,,0,V,193.55900000000838,response,,stim_detected,keydown(Space),165187.10000002384,165182.5,164972.274,164974.70000004768,164988.941,165188.945,,white
,Trial,flow.Sequence,3_63_0,2022-03-01T09:16:52.040Z,,,,0,V,2710.2760000000126,completion,,,,165187.5,165182.5,162455.557,162430.5,162472.224,165188.945,,white
,Frame,canvas.Frame,3_63,2022-03-01T09:16:52.040Z,,,,0,V,2715.3760000238544,,,,,165187.60000002384,165187.60000002384,162455.557,162429.60000002384,162472.224,165188.945,,white
,Fixation,canvas.Screen,3_64_0_0,2022-03-01T09:16:53.542Z,,,,1,A,1516.6969999999856,timeout,,,,166689.70000004768,166688.975,165172.278,165188.80000001192,165188.945,166705.642,,grey
,Stimulus,canvas.Screen,3_64_0_1,2022-03-01T09:16:53.643Z,,,,1,A,100.00200000000768,timeout,,,,166789.90000003576,166788.977,166688.975,166689.90000003576,166705.642,166805.644,,grey
,Reaction,canvas.Screen,3_64_0_2,2022-03-01T09:16:53.923Z,,,,1,A,260.75600003576255,response,,stim_detected,keydown(Space),167070.70000004768,167066.40000003576,166788.977,166790,166805.644,167072.316,,grey
,Trial,flow.Sequence,3_64_0,2022-03-01T09:16:53.924Z,,,,1,A,1877.4550000357558,completion,,,,167070.90000003576,167066.40000003576,165172.278,165188.60000002384,165188.945,167072.316,,grey
,Frame,canvas.Frame,3_64,2022-03-01T09:16:53.924Z,,,,1,A,1882.054999999993,,,,,167071.10000002384,167071,165172.278,165187.80000001192,165188.945,167072.316,,grey
,Fixation,canvas.Screen,3_65_0_0,2022-03-01T09:16:56.028Z,,,,1,VA,2116.7090000000026,timeout,,,,169175.5,169172.358,167055.649,167072.10000002384,167072.316,169189.025,,white
,Stimulus,canvas.Screen,3_65_0_1,2022-03-01T09:16:56.127Z,,,,1,VA,100.00200000000768,timeout,,,,169274.40000003576,169272.36,169172.358,169175.80000001192,169189.025,169289.027,,white
,Reaction,canvas.Screen,3_65_0_2,2022-03-01T09:16:56.311Z,,,,1,VA,164.17300004768185,response,,stim_detected,keydown(Space),169457.90000003576,169453.20000004768,169272.36,169274.60000002384,169289.027,169472.364,,white
,Trial,flow.Sequence,3_65_0,2022-03-01T09:16:56.311Z,,,,1,VA,2380.884000047692,completion,,,,169458.20000004768,169453.20000004768,167055.649,167072.10000002384,167072.316,169472.364,,white
,Frame,canvas.Frame,3_65,2022-03-01T09:16:56.311Z,,,,1,VA,2385.9840000119293,,,,,169458.40000003576,169458.30000001192,167055.649,167071.20000004768,167072.316,169472.364,,white
,Fixation,canvas.Screen,3_66_0_0,2022-03-01T09:16:58.793Z,,,,1,VA,2483.3830000000016,timeout,,,,171940.5,171939.08,169455.697,169459.90000003576,169472.364,171955.747,,white
,Stimulus,canvas.Screen,3_66_0_1,2022-03-01T09:16:58.894Z,,,,1,VA,100.00200000000768,timeout,,,,172041.20000004768,172039.082,171939.08,171940.80000001192,171955.747,172055.749,,white
,Reaction,canvas.Screen,3_66_0_2,2022-03-01T09:16:59.088Z,,,,1,VA,174.451000047673,response,,stim_detected,keydown(Space),172235.10000002384,172230.20000004768,172039.082,172041.40000003576,172055.749,172239.086,,white
,Trial,flow.Sequence,3_66_0,2022-03-01T09:16:59.088Z,,,,1,VA,2757.8360000476823,completion,,,,172235.60000002384,172230.20000004768,169455.697,169459.80000001192,169472.364,172239.086,,white
,Frame,canvas.Frame,3_66,2022-03-01T09:16:59.089Z,,,,1,VA,2763.2360000238405,,,,,172235.80000001192,172235.60000002384,169455.697,169458.5,169472.364,172239.086,,white
,Fixation,canvas.Screen,3_67_0_0,2022-03-01T09:17:00.677Z,,,,0,V,1600.0319999999774,timeout,,,,173824.60000002384,173822.451,172222.419,172236.90000003576,172239.086,173839.118,,white
,Stimulus,canvas.Screen,3_67_0_1,2022-03-01T09:17:00.777Z,,,,0,V,100.00200000000768,timeout,,,,173923.90000003576,173922.453,173822.451,173824.90000003576,173839.118,173939.12,,white
,Reaction,canvas.Screen,3_67_0_2,2022-03-01T09:17:00.994Z,,,,0,V,196.88000000000466,response,,stim_detected,keydown(Space),174140.70000004768,174136,173922.453,173924.10000002384,173939.12,174155.791,,white
,Trial,flow.Sequence,3_67_0,2022-03-01T09:17:00.994Z,,,,0,V,1896.9139999999898,completion,,,,174141.10000002384,174136,172222.419,172236.70000004768,172239.086,174155.791,,white
,Frame,canvas.Frame,3_67,2022-03-01T09:17:00.994Z,,,,0,V,1902.0140000238316,,,,,174141.20000004768,174141.10000002384,172222.419,172235.90000003576,172239.086,174155.791,,white
,Fixation,canvas.Screen,3_68_0_0,2022-03-01T09:17:02.611Z,,,,0,V,1616.6989999999932,timeout,,,,175758,175755.823,174139.124,174142.20000004768,174155.791,175772.49,,white
,Stimulus,canvas.Screen,3_68_0_1,2022-03-01T09:17:02.711Z,,,,0,V,100.00200000000768,timeout,,,,175858.20000004768,175855.825,175755.823,175758.20000004768,175772.49,175872.492,,white
,Reaction,canvas.Screen,3_68_0_2,2022-03-01T09:17:02.933Z,,,,0,V,203.40800003576442,response,,stim_detected,keydown(Space),176080.30000001192,176075.90000003576,175855.825,175858.40000003576,175872.492,176089.163,,white
,Trial,flow.Sequence,3_68_0,2022-03-01T09:17:02.933Z,,,,0,V,1920.1090000357653,completion,,,,176080.60000002384,176075.90000003576,174139.124,174142.20000004768,174155.791,176089.163,,white
,Frame,canvas.Frame,3_68,2022-03-01T09:17:02.934Z,,,,0,V,1924.9090000476863,,,,,176080.80000001192,176080.70000004768,174139.124,174141.30000001192,174155.791,176089.163,,white
,Fixation,canvas.Screen,3_69_0_0,2022-03-01T09:17:05.161Z,,,,0,V,2233.377999999997,timeout,,,,178308,178305.874,176072.496,176081.90000003576,176089.163,178322.541,,white
,Stimulus,canvas.Screen,3_69_0_1,2022-03-01T09:17:05.261Z,,,,0,V,100.00200000000768,timeout,,,,178407.70000004768,178405.876,178305.874,178308.30000001192,178322.541,178422.543,,white
,Reaction,canvas.Screen,3_69_0_2,2022-03-01T09:17:05.447Z,,,,0,V,167.1570000476786,response,,stim_detected,keydown(Space),178594.10000002384,178589.70000004768,178405.876,178407.90000003576,178422.543,178605.88,,white
,Trial,flow.Sequence,3_69_0,2022-03-01T09:17:05.447Z,,,,0,V,2500.5370000476833,completion,,,,178594.40000003576,178589.70000004768,176072.496,176081.80000001192,176089.163,178605.88,,white
,Frame,canvas.Frame,3_69,2022-03-01T09:17:05.447Z,,,,0,V,2505.2370000357623,,,,,178594.5,178594.40000003576,176072.496,176080.90000003576,176089.163,178605.88,,white
,Fixation,canvas.Screen,3_70_0_0,2022-03-01T09:17:07.777Z,,,,1,A,2333.3800000000047,timeout,,,,180924.5,180922.593,178589.213,178595.60000002384,178605.88,180939.26,,grey
,Stimulus,canvas.Screen,3_70_0_1,2022-03-01T09:17:07.877Z,,,,1,A,100.00199999997858,timeout,,,,181023.60000002384,181022.595,180922.593,180924.70000004768,180939.26,181039.262,,grey
,Reaction,canvas.Screen,3_70_0_2,2022-03-01T09:17:08.198Z,,,,1,A,301.33800002385397,response,,stim_detected,keydown(Space),181345.5,181340.60000002384,181022.595,181023.90000003576,181039.262,181355.935,,grey
,Trial,flow.Sequence,3_70_0,2022-03-01T09:17:08.199Z,,,,1,A,2734.720000023837,completion,,,,181345.80000001192,181340.60000002384,178589.213,178595.60000002384,178605.88,181355.935,,grey
,Frame,canvas.Frame,3_70,2022-03-01T09:17:08.199Z,,,,1,A,2740.020000035758,,,,,181345.90000003576,181345.90000003576,178589.213,178594.60000002384,178605.88,181355.935,,grey
,Fixation,canvas.Screen,3_71_0_0,2022-03-01T09:17:09.816Z,,,,1,VA,1600.0320000000065,timeout,,,,182962.80000001192,182939.3,181339.268,181347,181355.935,182955.967,,white
,Stimulus,canvas.Screen,3_71_0_1,2022-03-01T09:17:09.895Z,,,,1,VA,100.00200000000768,timeout,,,,183041.90000003576,183039.302,182939.3,182963,182955.967,183055.969,,white
,Reaction,canvas.Screen,3_71_0_2,2022-03-01T09:17:10.140Z,,,,1,VA,226.53099999998813,response,,stim_detected,keydown(Space),183287.10000002384,183282.5,183039.302,183042.10000002384,183055.969,183289.307,,white
,Trial,flow.Sequence,3_71_0,2022-03-01T09:17:10.140Z,,,,1,VA,1926.5650000000023,completion,,,,183287.40000003576,183282.5,181339.268,181346.90000003576,181355.935,183289.307,,white
,Frame,canvas.Frame,3_71,2022-03-01T09:17:10.141Z,,,,1,VA,1931.5650000000023,,,,,183287.60000002384,183287.5,181339.268,181346.10000002384,181355.935,183289.307,,white
,Fixation,canvas.Screen,3_72_0_0,2022-03-01T09:17:12.412Z,,,,0,V,2283.3789999999863,timeout,,,,185558.80000001192,185556.019,183272.64,183288.80000001192,183289.307,185572.686,,white
,Stimulus,canvas.Screen,3_72_0_1,2022-03-01T09:17:12.511Z,,,,0,V,100.00200000000768,timeout,,,,185657.70000004768,185656.021,185556.019,185559,185572.686,185672.688,,white
,Reaction,canvas.Screen,3_72_0_2,2022-03-01T09:17:12.666Z,,,,0,V,135.51200004768907,response,,stim_detected,keydown(Space),185812.80000001192,185808.20000004768,185656.021,185657.90000003576,185672.688,185822.691,,white
,Trial,flow.Sequence,3_72_0,2022-03-01T09:17:12.666Z,,,,0,V,2518.893000047683,completion,,,,185813.10000002384,185808.20000004768,183272.64,183288.80000001192,183289.307,185822.691,,white
,Frame,canvas.Frame,3_72,2022-03-01T09:17:12.666Z,,,,0,V,2523.893000047683,,,,,185813.30000001192,185813.20000004768,183272.64,183287.70000004768,183289.307,185822.691,,white
,Fixation,canvas.Screen,3_73_0_0,2022-03-01T09:17:14.761Z,,,,1,VA,2100.042000000016,timeout,,,,187908.20000004768,187906.066,185806.024,185814.30000001192,185822.691,187922.733,,white
,Stimulus,canvas.Screen,3_73_0_1,2022-03-01T09:17:14.860Z,,,,1,VA,100.00199999997858,timeout,,,,188007.30000001192,188006.068,187906.066,187908.30000001192,187922.733,188022.735,,white
,Reaction,canvas.Screen,3_73_0_2,2022-03-01T09:17:14.896Z,,,,1,VA,15.565000011934899,response,,stim_detected,keydown(Space),188043,188038.30000001192,188006.068,188007.5,188022.735,188056.069,,white
,Trial,flow.Sequence,3_73_0,2022-03-01T09:17:14.896Z,,,,1,VA,2215.6090000119293,completion,,,,188043.30000001192,188038.30000001192,185806.024,185814.20000004768,185822.691,188056.069,,white
,Frame,canvas.Frame,3_73,2022-03-01T09:17:14.896Z,,,,1,VA,2220.6090000119293,,,,,188043.5,188043.30000001192,185806.024,185813.40000003576,185822.691,188056.069,,white
,Fixation,canvas.Screen,3_74_0_0,2022-03-01T09:17:16.795Z,,,,0,V,1900.0380000000005,timeout,,,,189941.80000001192,189939.44,188039.402,188044.5,188056.069,189956.107,,white
,Stimulus,canvas.Screen,3_74_0_1,2022-03-01T09:17:16.894Z,,,,0,V,100.00200000000768,timeout,,,,190041.30000001192,190039.442,189939.44,189942,189956.107,190056.109,,white
,Reaction,canvas.Screen,3_74_0_2,2022-03-01T09:17:17.119Z,,,,0,V,205.79100003576605,response,,stim_detected,keydown(Space),190266.40000003576,190261.90000003576,190039.442,190041.5,190056.109,190272.78,,white
,Trial,flow.Sequence,3_74_0,2022-03-01T09:17:17.120Z,,,,0,V,2205.831000035774,completion,,,,190266.70000004768,190261.90000003576,188039.402,188044.40000003576,188056.069,190272.78,,white
,Frame,canvas.Frame,3_74,2022-03-01T09:17:17.120Z,,,,0,V,2210.631000047695,,,,,190266.90000003576,190266.70000004768,188039.402,188043.60000002384,188056.069,190272.78,,white
,Fixation,canvas.Screen,3_75_0_0,2022-03-01T09:17:19.527Z,,,,0,V,2416.7149999999965,timeout,,,,192674.30000001192,192672.828,190256.113,190267.90000003576,190272.78,192689.495,,white
,Stimulus,canvas.Screen,3_75_0_1,2022-03-01T09:17:19.627Z,,,,0,V,100.00200000000768,timeout,,,,192774.5,192772.83,192672.828,192674.5,192689.495,192789.497,,white
,Reaction,canvas.Screen,3_75_0_2,2022-03-01T09:17:19.806Z,,,,0,V,159.40300003575976,response,,stim_detected,keydown(Space),192953.40000003576,192948.90000003576,192772.83,192774.70000004768,192789.497,192956.167,,white
,Trial,flow.Sequence,3_75_0,2022-03-01T09:17:19.807Z,,,,0,V,2676.120000035764,completion,,,,192953.90000003576,192948.90000003576,190256.113,190267.90000003576,190272.78,192956.167,,white
,Frame,canvas.Frame,3_75,2022-03-01T09:17:19.807Z,,,,0,V,2681.120000035764,,,,,192954,192953.90000003576,190256.113,190267,190272.78,192956.167,,white
,Fixation,canvas.Screen,3_76_0_0,2022-03-01T09:17:21.694Z,,,,1,VA,1900.0380000000005,timeout,,,,194841.10000002384,194839.538,192939.5,192955,192956.167,194856.205,,white
,Stimulus,canvas.Screen,3_76_0_1,2022-03-01T09:17:21.795Z,,,,1,VA,100.00200000000768,timeout,,,,194942.30000001192,194939.54,194839.538,194841.30000001192,194856.205,194956.207,,white
,Reaction,canvas.Screen,3_76_0_2,2022-03-01T09:17:22.049Z,,,,1,VA,235.49300004768884,response,,stim_detected,keydown(Space),195196.40000003576,195191.70000004768,194939.54,194942.40000003576,194956.207,195206.212,,white
,Trial,flow.Sequence,3_76_0,2022-03-01T09:17:22.050Z,,,,1,VA,2235.533000047697,completion,,,,195196.70000004768,195191.70000004768,192939.5,192955,192956.167,195206.212,,white
,Frame,canvas.Frame,3_76,2022-03-01T09:17:22.050Z,,,,1,VA,2240.633000011934,,,,,195196.90000003576,195196.80000001192,192939.5,192954.10000002384,192956.167,195206.212,,white
,Fixation,canvas.Screen,3_77_0_0,2022-03-01T09:17:23.678Z,,,,1,A,1633.366000000009,timeout,,,,196824.70000004768,196822.911,195189.545,195197.90000003576,195206.212,196839.578,,grey
,Stimulus,canvas.Screen,3_77_0_1,2022-03-01T09:17:23.778Z,,,,1,A,100.00199999997858,timeout,,,,196925,196922.913,196822.911,196825,196839.578,196939.58,,grey
,Reaction,canvas.Screen,3_77_0_2,2022-03-01T09:17:24.001Z,,,,1,A,204.02000002385466,response,,stim_detected,keydown(Space),197147.90000003576,197143.60000002384,196922.913,196925.20000004768,196939.58,197156.251,,grey
,Trial,flow.Sequence,3_77_0,2022-03-01T09:17:24.001Z,,,,1,A,1937.3880000238423,completion,,,,197148.20000004768,197143.60000002384,195189.545,195197.80000001192,195206.212,197156.251,,grey
,Frame,canvas.Frame,3_77,2022-03-01T09:17:24.001Z,,,,1,A,1942.0880000119214,,,,,197148.40000003576,197148.30000001192,195189.545,195197,195206.212,197156.251,,grey
,Fixation,canvas.Screen,3_78_0_0,2022-03-01T09:17:25.828Z,,,,0,V,1833.3700000000244,timeout,,,,198974.5,198972.954,197139.584,197149.5,197156.251,198989.621,,white
,Stimulus,canvas.Screen,3_78_0_1,2022-03-01T09:17:25.929Z,,,,0,V,100.00199999997858,timeout,,,,199075.5,199072.956,198972.954,198974.70000004768,198989.621,199089.623,,white
,Reaction,canvas.Screen,3_78_0_2,2022-03-01T09:17:26.153Z,,,,0,V,206.0770000476914,response,,stim_detected,keydown(Space),199300.10000002384,199295.70000004768,199072.956,199075.70000004768,199089.623,199306.294,,white
,Trial,flow.Sequence,3_78_0,2022-03-01T09:17:26.153Z,,,,0,V,2139.4490000476944,completion,,,,199300.40000003576,199295.70000004768,197139.584,197149.40000003576,197156.251,199306.294,,white
,Frame,canvas.Frame,3_78,2022-03-01T09:17:26.154Z,,,,0,V,2144.2490000000107,,,,,199300.60000002384,199300.5,197139.584,197148.5,197156.251,199306.294,,white
,Fixation,canvas.Screen,3_79_0_0,2022-03-01T09:17:28.245Z,,,,1,VA,2100.042000000016,timeout,,,,201392.10000002384,201389.669,199289.627,199301.60000002384,199306.294,201406.336,,white
,Stimulus,canvas.Screen,3_79_0_1,2022-03-01T09:17:28.346Z,,,,1,VA,100.00199999997858,timeout,,,,201492.60000002384,201489.671,201389.669,201392.30000001192,201406.336,201506.338,,white
,Reaction,canvas.Screen,3_79_0_2,2022-03-01T09:17:28.524Z,,,,1,VA,160.16200000001118,response,,stim_detected,keydown(Space),201670.90000003576,201666.5,201489.671,201492.70000004768,201506.338,201673.008,,white
,Trial,flow.Sequence,3_79_0,2022-03-01T09:17:28.524Z,,,,1,VA,2360.2060000000056,completion,,,,201671.20000004768,201666.5,199289.627,199301.60000002384,199306.294,201673.008,,white
,Frame,canvas.Frame,3_79,2022-03-01T09:17:28.524Z,,,,1,VA,2364.9060000476893,,,,,201671.40000003576,201671.20000004768,199289.627,199300.70000004768,199306.294,201673.008,,white
,Fixation,canvas.Screen,3_80_0_0,2022-03-01T09:17:30.045Z,,,,0,V,1533.3640000000014,timeout,,,,203192.40000003576,203189.705,201656.341,201673.30000001192,201673.008,203206.372,,white
,Stimulus,canvas.Screen,3_80_0_1,2022-03-01T09:17:30.145Z,,,,0,V,100.00200000000768,timeout,,,,203291.60000002384,203289.707,203189.705,203192.5,203206.372,203306.374,,white
,Reaction,canvas.Screen,3_80_0_2,2022-03-01T09:17:30.456Z,,,,0,V,292.0260000357521,response,,stim_detected,keydown(Space),203602.70000004768,203598.40000003576,203289.707,203291.70000004768,203306.374,203606.38,,white
,Trial,flow.Sequence,3_80_0,2022-03-01T09:17:30.456Z,,,,0,V,1925.3920000357612,completion,,,,203602.90000003576,203598.40000003576,201656.341,201673.20000004768,201673.008,203606.38,,white
,Frame,canvas.Frame,3_80,2022-03-01T09:17:30.456Z,,,,0,V,1929.8920000357612,,,,,203603.10000002384,203602.90000003576,201656.341,201671.5,201673.008,203606.38,,white
,Fixation,canvas.Screen,3_81_0_0,2022-03-01T09:17:32.027Z,,,,1,VA,1583.3649999999907,timeout,,,,205174.10000002384,205173.078,203589.713,203604.40000003576,203606.38,205189.745,,white
,Stimulus,canvas.Screen,3_81_0_1,2022-03-01T09:17:32.129Z,,,,1,VA,100.00200000000768,timeout,,,,205276,205273.08,205173.078,205174.30000001192,205189.745,205289.747,,white
,Reaction,canvas.Screen,3_81_0_2,2022-03-01T09:17:32.321Z,,,,1,VA,173.5530000119179,response,,stim_detected,keydown(Space),205468.20000004768,205463.30000001192,205273.08,205276.10000002384,205289.747,205473.084,,white
,Trial,flow.Sequence,3_81_0,2022-03-01T09:17:32.322Z,,,,1,VA,1856.9200000119163,completion,,,,205468.5,205463.30000001192,203589.713,203604.20000004768,203606.38,205473.084,,white
,Frame,canvas.Frame,3_81,2022-03-01T09:17:32.322Z,,,,1,VA,1862.2200000238372,,,,,205468.70000004768,205468.60000002384,203589.713,203603.20000004768,203606.38,205473.084,,white
,Fixation,canvas.Screen,3_82_0_0,2022-03-01T09:17:34.462Z,,,,1,A,2150.043000000005,timeout,,,,207608.40000003576,207606.46,205456.417,205469.90000003576,205473.084,207623.127,,grey
,Stimulus,canvas.Screen,3_82_0_1,2022-03-01T09:17:34.562Z,,,,1,A,100.00199999997858,timeout,,,,207709.10000002384,207706.462,207606.46,207608.70000004768,207623.127,207723.129,,grey
,Reaction,canvas.Screen,3_82_0_2,2022-03-01T09:17:34.846Z,,,,1,A,265.07100004769745,response,,stim_detected,keydown(Space),207993.20000004768,207988.20000004768,207706.462,207709.30000001192,207723.129,208006.468,,grey
,Trial,flow.Sequence,3_82_0,2022-03-01T09:17:34.847Z,,,,1,A,2515.116000047681,completion,,,,207993.60000002384,207988.20000004768,205456.417,205469.60000002384,205473.084,208006.468,,grey
,Frame,canvas.Frame,3_82,2022-03-01T09:17:34.847Z,,,,1,A,2520.616000047681,,,,,207993.80000001192,207993.70000004768,205456.417,205468.80000001192,205473.084,208006.468,,grey
,Fixation,canvas.Screen,3_83_0_0,2022-03-01T09:17:36.978Z,,,,0,V,2133.3760000000184,timeout,,,,210125.20000004768,210123.177,207989.801,207994.80000001192,208006.468,210139.844,,white
,Stimulus,canvas.Screen,3_83_0_1,2022-03-01T09:17:37.079Z,,,,0,V,100.00199999997858,timeout,,,,210225.5,210223.179,210123.177,210125.40000003576,210139.844,210239.846,,white
,Reaction,canvas.Screen,3_83_0_2,2022-03-01T09:17:37.286Z,,,,0,V,188.2540000238514,response,,stim_detected,keydown(Space),210432.80000001192,210428.10000002384,210223.179,210225.80000001192,210239.846,210439.85,,white
,Trial,flow.Sequence,3_83_0,2022-03-01T09:17:37.286Z,,,,0,V,2421.6320000238484,completion,,,,210433.10000002384,210428.10000002384,207989.801,207994.80000001192,208006.468,210439.85,,white
,Frame,canvas.Frame,3_83,2022-03-01T09:17:37.286Z,,,,0,V,2426.7320000476902,,,,,210433.20000004768,210433.20000004768,207989.801,207993.90000003576,208006.468,210439.85,,white
,Fixation,canvas.Screen,3_84_0_0,2022-03-01T09:17:39.144Z,,,,1,A,1866.703999999998,timeout,,,,212291.10000002384,212289.887,210423.183,210434.30000001192,210439.85,212306.554,,grey
,Stimulus,canvas.Screen,3_84_0_1,2022-03-01T09:17:39.245Z,,,,1,A,100.00200000000768,timeout,,,,212391.5,212389.889,212289.887,212291.40000003576,212306.554,212406.556,,grey
,Reaction,canvas.Screen,3_84_0_2,2022-03-01T09:17:39.515Z,,,,1,A,250.24400001190952,response,,stim_detected,keydown(Space),212661.5,212656.80000001192,212389.889,212391.70000004768,212406.556,212673.228,,grey
,Trial,flow.Sequence,3_84_0,2022-03-01T09:17:39.515Z,,,,1,A,2216.950000011915,completion,,,,212661.80000001192,212656.80000001192,210423.183,210434.30000001192,210439.85,212673.228,,grey
,Frame,canvas.Frame,3_84,2022-03-01T09:17:39.515Z,,,,1,A,2221.950000011915,,,,,212662,212661.80000001192,210423.183,210433.40000003576,210439.85,212673.228,,grey
,Fixation,canvas.Screen,3_85_0_0,2022-03-01T09:17:41.312Z,,,,1,A,1800.0359999999928,timeout,,,,214459.10000002384,214456.597,212656.561,212663,212673.228,214473.264,,grey
,Stimulus,canvas.Screen,3_85_0_1,2022-03-01T09:17:41.412Z,,,,1,A,100.00200000000768,timeout,,,,214558.90000003576,214556.599,214456.597,214459.20000004768,214473.264,214573.266,,grey
,Reaction,canvas.Screen,3_85_0_2,2022-03-01T09:17:41.662Z,,,,1,A,230.53400001191767,response,,stim_detected,keydown(Space),214808.40000003576,214803.80000001192,214556.599,214559.20000004768,214573.266,214823.271,,grey
,Trial,flow.Sequence,3_85_0,2022-03-01T09:17:41.662Z,,,,1,A,2130.572000011918,completion,,,,214808.60000002384,214803.80000001192,212656.561,212663,212673.228,214823.271,,grey
,Frame,canvas.Frame,3_85,2022-03-01T09:17:41.662Z,,,,1,A,2135.472000047681,,,,,214808.90000003576,214808.70000004768,212656.561,212662.10000002384,212673.228,214823.271,,grey
,Fixation,canvas.Screen,3_86_0_0,2022-03-01T09:17:43.362Z,,,,1,A,1700.033999999985,timeout,,,,216508.70000004768,216506.638,214806.604,214809.90000003576,214823.271,216523.305,,grey
,Stimulus,canvas.Screen,3_86_0_1,2022-03-01T09:17:43.462Z,,,,1,A,100.00200000000768,timeout,,,,216608.70000004768,216606.64,216506.638,216509,216523.305,216623.307,,grey
,Reaction,canvas.Screen,3_86_0_2,2022-03-01T09:17:43.477Z,,,,1,A,12.060000047669746,response,,stim_detected,keydown(Space),216623.5,216618.70000004768,216606.64,216608.90000003576,,216639.974,,grey
,Trial,flow.Sequence,3_86_0,2022-03-01T09:17:43.477Z,,,,1,A,1795.4290000476758,completion,,,,216623.80000001192,216618.70000004768,214806.604,214809.80000001192,214823.271,216639.974,,grey
,Frame,canvas.Frame,3_86,2022-03-01T09:17:43.477Z,,,,1,A,1800.6290000357549,,,,,216624,216623.90000003576,214806.604,214808.90000003576,214823.271,216639.974,,grey
,Fixation,canvas.Screen,3_87_0_0,2022-03-01T09:17:45.094Z,,,,1,VA,1616.6990000000224,timeout,,,,218241.10000002384,218240.006,216623.307,216625.60000002384,216639.974,218256.673,,white
,Stimulus,canvas.Screen,3_87_0_1,2022-03-01T09:17:45.195Z,,,,1,VA,100.00199999997858,timeout,,,,218341.90000003576,218340.008,218240.006,218241.30000001192,218256.673,218356.675,,white
,Reaction,canvas.Screen,3_87_0_2,2022-03-01T09:17:45.442Z,,,,1,VA,227.82500000001164,response,,stim_detected,keydown(Space),218589,218584.5,218340.008,218342,218356.675,218606.68,,white
,Trial,flow.Sequence,3_87_0,2022-03-01T09:17:45.443Z,,,,1,VA,1944.5260000000126,completion,,,,218589.30000001192,218584.5,216623.307,216625.60000002384,216639.974,218606.68,,white
,Frame,canvas.Frame,3_87,2022-03-01T09:17:45.443Z,,,,1,VA,1949.4260000357754,,,,,218589.5,218589.40000003576,216623.307,216624.20000004768,216639.974,218606.68,,white
,Fixation,canvas.Screen,3_88_0_0,2022-03-01T09:17:46.962Z,,,,1,A,1516.6970000000147,timeout,,,,220108.60000002384,220106.71,218590.013,218590.5,218606.68,220123.377,,grey
,Stimulus,canvas.Screen,3_88_0_1,2022-03-01T09:17:47.062Z,,,,1,A,100.00199999997858,timeout,,,,220208.80000001192,220206.712,220106.71,220108.80000001192,220123.377,220223.379,,grey
,Reaction,canvas.Screen,3_88_0_2,2022-03-01T09:17:47.339Z,,,,1,A,258.12100000001374,response,,stim_detected,keydown(Space),220486,220481.5,220206.712,220209,220223.379,220490.051,,grey
,Trial,flow.Sequence,3_88_0,2022-03-01T09:17:47.340Z,,,,1,A,1874.820000000007,completion,,,,220486.30000001192,220481.5,218590.013,218590.40000003576,218606.68,220490.051,,grey
,Frame,canvas.Frame,3_88,2022-03-01T09:17:47.340Z,,,,1,A,1879.7200000357698,,,,,220486.5,220486.40000003576,218590.013,218589.60000002384,218606.68,220490.051,,grey
,Fixation,canvas.Screen,3_89_0_0,2022-03-01T09:17:49.712Z,,,,0,V,2383.380999999994,timeout,,,,222859,222856.765,220473.384,220487.60000002384,220490.051,222873.432,,white
,Stimulus,canvas.Screen,3_89_0_1,2022-03-01T09:17:49.813Z,,,,0,V,100.00200000000768,timeout,,,,222959.30000001192,222956.767,222856.765,222859.60000002384,222873.432,222973.434,,white
,Reaction,canvas.Screen,3_89_0_2,2022-03-01T09:17:50.092Z,,,,0,V,260.86600001191255,response,,stim_detected,keydown(Space),223238.70000004768,223234.30000001192,222956.767,222959.5,222973.434,223240.106,,white
,Trial,flow.Sequence,3_89_0,2022-03-01T09:17:50.092Z,,,,0,V,2744.249000011914,completion,,,,223239.20000004768,223234.30000001192,220473.384,220487.5,220490.051,223240.106,,white
,Frame,canvas.Frame,3_89,2022-03-01T09:17:50.093Z,,,,0,V,2749.149000047677,,,,,223239.40000003576,223239.20000004768,220473.384,220486.60000002384,220490.051,223240.106,,white
,Fixation,canvas.Screen,3_90_0_0,2022-03-01T09:17:51.896Z,,,,1,A,1816.7030000000086,timeout,,,,225042.30000001192,225040.142,223223.439,223240.5,223240.106,225056.809,,grey
,Stimulus,canvas.Screen,3_90_0_1,2022-03-01T09:17:51.995Z,,,,1,A,100.00199999997858,timeout,,,,225141.40000003576,225140.144,225040.142,225042.5,225056.809,225156.811,,grey
,Reaction,canvas.Screen,3_90_0_2,2022-03-01T09:17:52.385Z,,,,1,A,370.2890000238549,response,,stim_detected,keydown(Space),225531.5,225527.10000002384,225140.144,225141.60000002384,225156.811,225540.152,,grey
,Trial,flow.Sequence,3_90_0,2022-03-01T09:17:52.385Z,,,,1,A,2286.994000023842,completion,,,,225531.80000001192,225527.10000002384,223223.439,223240.30000001192,223240.106,225540.152,,grey
,Frame,canvas.Frame,3_90,2022-03-01T09:17:52.385Z,,,,1,A,2291.794000035763,,,,,225532,225531.90000003576,223223.439,223239.5,223240.106,225540.152,,grey
,Fixation,canvas.Screen,3_91_0_0,2022-03-01T09:17:53.912Z,,,,0,V,1533.3640000000014,timeout,,,,227058.90000003576,227056.849,225523.485,225533,225540.152,227073.516,,white
,Stimulus,canvas.Screen,3_91_0_1,2022-03-01T09:17:54.013Z,,,,0,V,100.00200000000768,timeout,,,,227159.30000001192,227156.851,227056.849,227059.10000002384,227073.516,227173.518,,white
,Reaction,canvas.Screen,3_91_0_2,2022-03-01T09:17:54.263Z,,,,0,V,231.48199999998906,response,,stim_detected,keydown(Space),227409.70000004768,227405,227156.851,227159.60000002384,227173.518,227423.523,,white
,Trial,flow.Sequence,3_91_0,2022-03-01T09:17:54.263Z,,,,0,V,1864.8479999999981,completion,,,,227410,227405,225523.485,225533,225540.152,227423.523,,white
,Frame,canvas.Frame,3_91,2022-03-01T09:17:54.264Z,,,,0,V,1869.8479999999981,,,,,227410.30000001192,227410,225523.485,225532.20000004768,225540.152,227423.523,,white
,Fixation,canvas.Screen,3_92_0_0,2022-03-01T09:17:56.262Z,,,,1,A,2000.0400000000081,timeout,,,,229408.5,229406.896,227406.856,227411.5,227423.523,229423.563,,grey
,Stimulus,canvas.Screen,3_92_0_1,2022-03-01T09:17:56.362Z,,,,1,A,100.00200000000768,timeout,,,,229508.70000004768,229506.898,229406.896,229408.80000001192,229423.563,229523.565,,grey
,Reaction,canvas.Screen,3_92_0_2,2022-03-01T09:17:56.590Z,,,,1,A,208.43499999999767,response,,stim_detected,keydown(Space),229736.5,229732,229506.898,229509,229523.565,229740.236,,grey
,Trial,flow.Sequence,3_92_0,2022-03-01T09:17:56.590Z,,,,1,A,2308.4770000000135,completion,,,,229736.80000001192,229732,227406.856,227411.5,227423.523,229740.236,,grey
,Frame,canvas.Frame,3_92,2022-03-01T09:17:56.590Z,,,,1,A,2313.3770000357763,,,,,229737.10000002384,229736.90000003576,227406.856,227410.5,227423.523,229740.236,,grey
,Fixation,canvas.Screen,3_93_0_0,2022-03-01T09:17:58.763Z,,,,0,V,2183.3770000000077,timeout,,,,231909.90000003576,231906.946,229723.569,229738.10000002384,229740.236,231923.613,,white
,Stimulus,canvas.Screen,3_93_0_1,2022-03-01T09:17:58.862Z,,,,0,V,100.00199999997858,timeout,,,,232009,232006.948,231906.946,231910.20000004768,231923.613,232023.615,,white
,Reaction,canvas.Screen,3_93_0_2,2022-03-01T09:17:59.137Z,,,,0,V,255.2850000357721,response,,stim_detected,keydown(Space),232283.20000004768,232278.90000003576,232006.948,232009.30000001192,232023.615,232290.287,,white
,Trial,flow.Sequence,3_93_0,2022-03-01T09:17:59.137Z,,,,0,V,2538.6640000357584,completion,,,,232283.5,232278.90000003576,229723.569,229738.10000002384,229740.236,232290.287,,white
,Frame,canvas.Frame,3_93,2022-03-01T09:17:59.137Z,,,,0,V,2543.3640000238374,,,,,232283.70000004768,232283.60000002384,229723.569,229737.20000004768,229740.236,232290.287,,white
,Fixation,canvas.Screen,3_94_0_0,2022-03-01T09:18:00.644Z,,,,1,VA,1516.6969999999856,timeout,,,,233791.10000002384,233790.317,232273.62,232284.80000001192,232290.287,233806.984,,white
,Stimulus,canvas.Screen,3_94_0_1,2022-03-01T09:18:00.746Z,,,,1,VA,100.00200000000768,timeout,,,,233892.20000004768,233890.319,233790.317,233791.20000004768,233806.984,233906.986,,white
,Reaction,canvas.Screen,3_94_0_2,2022-03-01T09:18:00.977Z,,,,1,VA,211.8140000119165,response,,stim_detected,keydown(Space),234123.20000004768,234118.80000001192,233890.319,233892.40000003576,233906.986,234140.324,,white
,Trial,flow.Sequence,3_94_0,2022-03-01T09:18:00.977Z,,,,1,VA,1828.5130000119098,completion,,,,234123.5,234118.80000001192,232273.62,232284.70000004768,232290.287,234140.324,,white
,Frame,canvas.Frame,3_94,2022-03-01T09:18:00.977Z,,,,1,VA,1833.2129999999888,,,,,234123.70000004768,234123.5,232273.62,232283.80000001192,232290.287,234140.324,,white
,Fixation,canvas.Screen,3_95_0_0,2022-03-01T09:18:02.930Z,,,,1,VA,1950.0390000000189,timeout,,,,236076.60000002384,236073.696,234123.657,234124.70000004768,234140.324,236090.363,,white
,Stimulus,canvas.Screen,3_95_0_1,2022-03-01T09:18:03.030Z,,,,1,VA,100.00199999997858,timeout,,,,236176.5,236173.698,236073.696,236076.80000001192,236090.363,236190.365,,white
,Reaction,canvas.Screen,3_95_0_2,2022-03-01T09:18:03.208Z,,,,1,VA,160.1350000000093,response,,stim_detected,keydown(Space),236354.80000001192,236350.5,236173.698,236176.80000001192,236190.365,236357.035,,white
,Trial,flow.Sequence,3_95_0,2022-03-01T09:18:03.209Z,,,,1,VA,2210.1760000000068,completion,,,,236355.20000004768,236350.5,234123.657,234124.60000002384,234140.324,236357.035,,white
,Frame,canvas.Frame,3_95,2022-03-01T09:18:03.209Z,,,,1,VA,2214.9760000119277,,,,,236355.40000003576,236355.30000001192,234123.657,234123.80000001192,234140.324,236357.035,,white
,Fixation,canvas.Screen,3_96_0_0,2022-03-01T09:18:05.596Z,,,,0,V,2400.04800000001,timeout,,,,238742.80000001192,238740.416,236340.368,236356.60000002384,236357.035,238757.083,,white
,Stimulus,canvas.Screen,3_96_0_1,2022-03-01T09:18:05.697Z,,,,0,V,100.00199999997858,timeout,,,,238843.30000001192,238840.418,238740.416,238743.20000004768,238757.083,238857.085,,white
,Reaction,canvas.Screen,3_96_0_2,2022-03-01T09:18:05.916Z,,,,0,V,200.41500000000815,response,,stim_detected,keydown(Space),239062.30000001192,239057.5,238840.418,238843.5,238857.085,239073.756,,white
,Trial,flow.Sequence,3_96_0,2022-03-01T09:18:05.916Z,,,,0,V,2700.4649999999965,completion,,,,239062.60000002384,239057.5,236340.368,236356.5,236357.035,239073.756,,white
,Frame,canvas.Frame,3_96,2022-03-01T09:18:05.916Z,,,,0,V,2705.5650000238384,,,,,239062.80000001192,239062.60000002384,236340.368,236355.5,236357.035,239073.756,,white
,Fixation,canvas.Screen,3_97_0_0,2022-03-01T09:18:07.895Z,,,,1,VA,1983.3729999999923,timeout,,,,241041.5,241040.462,239057.089,239063.80000001192,239073.756,241057.129,,white
,Stimulus,canvas.Screen,3_97_0_1,2022-03-01T09:18:07.997Z,,,,1,VA,100.00200000000768,timeout,,,,241143.10000002384,241140.464,241040.462,241041.70000004768,241057.129,241157.131,,white
,Reaction,canvas.Screen,3_97_0_2,2022-03-01T09:18:08.214Z,,,,1,VA,198.26900003576884,response,,stim_detected,keydown(Space),241360.60000002384,241355.40000003576,241140.464,241143.30000001192,241157.131,241373.802,,white
,Trial,flow.Sequence,3_97_0,2022-03-01T09:18:08.214Z,,,,1,VA,2281.644000035769,completion,,,,241360.80000001192,241355.40000003576,239057.089,239063.70000004768,239073.756,241373.802,,white
,Frame,canvas.Frame,3_97,2022-03-01T09:18:08.215Z,,,,1,VA,2287.144000035769,,,,,241361.10000002384,241360.90000003576,239057.089,239062.90000003576,239073.756,241373.802,,white
,Fixation,canvas.Screen,3_98_0_0,2022-03-01T09:18:10.680Z,,,,1,A,2466.716000000015,timeout,,,,243826.10000002384,243823.851,241357.135,241362.10000002384,241373.802,243840.518,,grey
,Stimulus,canvas.Screen,3_98_0_1,2022-03-01T09:18:10.780Z,,,,1,A,100.00199999997858,timeout,,,,243926.10000002384,243923.853,243823.851,243826.40000003576,243840.518,243940.52,,grey
,Reaction,canvas.Screen,3_98_0_2,2022-03-01T09:18:11.092Z,,,,1,A,293.58000002385234,response,,stim_detected,keydown(Space),244238.5,244234.10000002384,243923.853,243926.40000003576,243940.52,244240.526,,grey
,Trial,flow.Sequence,3_98_0,2022-03-01T09:18:11.092Z,,,,1,A,2860.298000023846,completion,,,,244238.80000001192,244234.10000002384,241357.135,241362,241373.802,244240.526,,grey
,Frame,canvas.Frame,3_98,2022-03-01T09:18:11.092Z,,,,1,A,2864.998000011925,,,,,244239,244238.80000001192,241357.135,241361.10000002384,241373.802,244240.526,,grey
,Fixation,canvas.Screen,3_99_0_0,2022-03-01T09:18:13.046Z,,,,1,VA,1966.7059999999765,timeout,,,,246192.10000002384,246190.565,244223.859,244240,244240.526,246207.232,,white
,Stimulus,canvas.Screen,3_99_0_1,2022-03-01T09:18:13.146Z,,,,1,VA,100.00200000000768,timeout,,,,246292.80000001192,246290.567,246190.565,246192.30000001192,246207.232,246307.234,,white
,Reaction,canvas.Screen,3_99_0_2,2022-03-01T09:18:13.359Z,,,,1,VA,193.86600002384512,response,,stim_detected,keydown(Space),246505.5,246501.10000002384,246290.567,246293.10000002384,246307.234,246523.905,,white
,Trial,flow.Sequence,3_99_0,2022-03-01T09:18:13.359Z,,,,1,VA,2260.5740000238293,completion,,,,246505.80000001192,246501.10000002384,244223.859,244240,244240.526,246523.905,,white
,Frame,canvas.Frame,3_99,2022-03-01T09:18:13.360Z,,,,1,VA,2265.37400003575,,,,,246506,246505.90000003576,244223.859,244239.10000002384,244240.526,246523.905,,white
,Loop,flow.Loop,3,2022-03-01T09:18:13.360Z,,,,,,231669.96200003577,completion,,,,246506.20000004768,246505.90000003576,14819.271,14822,14835.938,246523.905,,
,end,html.Page,4,2022-03-01T09:18:15.535Z,,,,,,2157.095000000001,form submission,,,,248681.70000004768,248681,246507.238,246506.40000003576,246523.905,248690.615,,
,root,flow.Sequence,,2022-03-01T09:18:15.536Z,,,,,,247562.003,completion,,,,248682.80000001192,248681,1085.663,1091.800000011921,1118.997,248690.615,,