id,sender,sender_type,sender_id,timestamp,meta,,age,aud,condition,duration,ended_on,gender,response,response_action,time_commit,time_end,time_render,time_run,time_show,time_switch,url,vis
Eli Cash,Hello,html.Page,0,2022-03-01T09:42:11.652Z,"{""labjs_version"":""20.2.4"",""labjs_build"":{""flavor"":""development"",""commit"":""f5b4a49f956347addd546a832a3327688c2c0fef""},""location"":""https://labjs.felixhenninger.com/api/labjs_preview/index.html"",""userAgent"":""Mozilla/5.0 (Macintosh; Intel Mac OS X 10_15_7) AppleWebKit/537.36 (KHTML, like Gecko) Chrome/98.0.4758.80 Safari/537.36"",""platform"":""MacIntel"",""language"":""de-DE"",""locale"":""de"",""timeZone"":""Europe/Berlin"",""timezoneOffset"":-60,""screen_width"":1440,""screen_height"":900,""scroll_width"":1440,""scroll_height"":708,""window_innerWidth"":1440,""window_innerHeight"":756,""devicePixelRatio"":1}",,31,,,7671.144999976158,form submission,no_ans,,,8747.099999964237,8746.399999976158,1041.921,997.8000000119209,1075.255,8742.075,{},
,Instructions,html.Page,1,2022-03-01T09:42:13.018Z,,,,,,1371.2250000119202,form submission,,,,10114,10113.300000011921,8725.408,8747.5,8742.075,10125.436,,
,Change Background,canvas.Screen,2,2022-03-01T09:42:16.016Z,,,,,,3000.0599999999995,timeout,,,,13111.199999988079,13108.829,10108.769,10114.199999988079,10125.436,13125.496,,
,Fixation,canvas.Screen,3_0_0_0,2022-03-01T09:42:17.950Z,,,,1,VA,1933.3720000000012,timeout,,,,15045.099999964237,15042.201,13108.829,13112.699999988079,13125.496,15058.868,,white
,Stimulus,canvas.Screen,3_0_0_1,2022-03-01T09:42:18.049Z,,,,1,VA,100.00200000000041,timeout,,,,15144.599999964237,15142.203,15042.201,15045.399999976158,15058.868,15158.87,,white
,Reaction,canvas.Screen,3_0_0_2,2022-03-01T09:42:18.306Z,,,,1,VA,236.6299999999992,response,,stim_detected,keydown(Space),15401.099999964237,15395.5,15142.203,15144.800000011921,15158.87,15408.875,,white
,Trial,flow.Sequence,3_0_0,2022-03-01T09:42:18.306Z,,,,1,VA,2270.004000000001,completion,,,,15401.5,15395.5,13108.829,13112.599999964237,13125.496,15408.875,,white
,Frame,canvas.Frame,3_0,2022-03-01T09:42:18.307Z,,,,1,VA,2276.403999976159,,,,,15402.099999964237,15401.899999976158,13108.829,13111.5,13125.496,15408.875,,white
,Fixation,canvas.Screen,3_1_0_0,2022-03-01T09:42:20.031Z,,,,0,V,1733.3679999999986,timeout,,,,17126.80000001192,17125.576,15392.208,15403.300000011921,15408.875,17142.243,,white
,Stimulus,canvas.Screen,3_1_0_1,2022-03-01T09:42:20.133Z,,,,0,V,100.00200000000041,timeout,,,,17228.19999998808,17225.578,17125.576,17127.30000001192,17142.243,17242.245,,white
,Reaction,canvas.Screen,3_1_0_2,2022-03-01T09:42:20.381Z,,,,0,V,229.15499997615916,response,,stim_detected,keydown(Space),17476.399999976158,17471.399999976158,17225.578,17228.5,17242.245,17492.25,,white
,Trial,flow.Sequence,3_1_0,2022-03-01T09:42:20.382Z,,,,0,V,2062.524999976158,completion,,,,17477.19999998808,17471.399999976158,15392.208,15403.199999988079,15408.875,17492.25,,white
,Frame,canvas.Frame,3_1,2022-03-01T09:42:20.382Z,,,,0,V,2068.324999988079,,,,,17477.5,17477.19999998808,15392.208,15402.300000011921,15408.875,17492.25,,white
,Fixation,canvas.Screen,3_2_0_0,2022-03-01T09:42:22.800Z,,,,1,VA,2416.715,timeout,,,,19895.099999964237,19892.298,17475.583,17478.69999998808,17492.25,19908.965,,white
,Stimulus,canvas.Screen,3_2_0_1,2022-03-01T09:42:22.899Z,,,,1,VA,100.00200000000041,timeout,,,,19994.399999976158,19992.3,19892.298,19895.30000001192,19908.965,20008.967,,white
,Reaction,canvas.Screen,3_2_0_2,2022-03-01T09:42:23.077Z,,,,1,VA,158.23299998807852,response,,stim_detected,keydown(Space),20171.80000001192,20167.19999998808,19992.3,19994.599999964237,20008.967,20175.637,,white
,Trial,flow.Sequence,3_2_0,2022-03-01T09:42:23.077Z,,,,1,VA,2674.949999988079,completion,,,,20172.19999998808,20167.19999998808,17475.583,17478.599999964237,17492.25,20175.637,,white
,Frame,canvas.Frame,3_2,2022-03-01T09:42:23.077Z,,,,1,VA,2680.050000011921,,,,,20172.399999976158,20172.30000001192,17475.583,17477.599999964237,17492.25,20175.637,,white
,Fixation,canvas.Screen,3_3_0_0,2022-03-01T09:42:25.250Z,,,,1,VA,2183.3770000000004,timeout,,,,22345.30000001192,22342.347,20158.97,20173.69999998808,20175.637,22359.014,,white
,Stimulus,canvas.Screen,3_3_0_1,2022-03-01T09:42:25.349Z,,,,1,VA,100.00200000000041,timeout,,,,22443.69999998808,22442.349,22342.347,22345.5,22359.014,22459.016,,white
,Reaction,canvas.Screen,3_3_0_2,2022-03-01T09:42:25.533Z,,,,1,VA,164.18399998807945,response,,stim_detected,keydown(Space),22627.899999976158,22623.19999998808,22442.349,22443.80000001192,22459.016,22642.353,,white
,Trial,flow.Sequence,3_3_0,2022-03-01T09:42:25.533Z,,,,1,VA,2447.5629999880803,completion,,,,22628.19999998808,22623.19999998808,20158.97,20173.599999964237,20175.637,22642.353,,white
,Frame,canvas.Frame,3_3,2022-03-01T09:42:25.533Z,,,,1,VA,2452.663000011922,,,,,22628.399999976158,22628.30000001192,20158.97,20172.5,20175.637,22642.353,,white
,Fixation,canvas.Screen,3_4_0_0,2022-03-01T09:42:27.383Z,,,,1,A,1850.0370000000003,timeout,,,,24478.599999964237,24475.723,22625.686,22629.599999964237,22642.353,24492.39,,grey
,Stimulus,canvas.Screen,3_4_0_1,2022-03-01T09:42:27.483Z,,,,1,A,100.00200000000041,timeout,,,,24578.30000001192,24575.725,24475.723,24478.69999998808,24492.39,24592.392,,grey
,Reaction,canvas.Screen,3_4_0_2,2022-03-01T09:42:27.846Z,,,,1,A,344.7079999642374,response,,stim_detected,keydown(Space),24941.399999976158,24937.099999964237,24575.725,24578.5,24592.392,24959.066,,grey
,Trial,flow.Sequence,3_4_0,2022-03-01T09:42:27.847Z,,,,1,A,2294.746999964238,completion,,,,24941.80000001192,24937.099999964237,22625.686,22629.599999964237,22642.353,24959.066,,grey
,Frame,canvas.Frame,3_4,2022-03-01T09:42:27.847Z,,,,1,A,2299.447000011922,,,,,24942.399999976158,24941.80000001192,22625.686,22628.5,22642.353,24959.066,,grey
,Fixation,canvas.Screen,3_5_0_0,2022-03-01T09:42:30.283Z,,,,0,V,2433.3820000000014,timeout,,,,27378.19999998808,27375.781,24942.399,24943.5,24959.066,27392.448,,white
,Stimulus,canvas.Screen,3_5_0_1,2022-03-01T09:42:30.382Z,,,,0,V,100.00200000000041,timeout,,,,27477,27475.783,27375.781,27378.5,27392.448,27492.45,,white
,Reaction,canvas.Screen,3_5_0_2,2022-03-01T09:42:30.601Z,,,,0,V,198.44999997615741,response,,stim_detected,keydown(Space),27696.099999964237,27690.899999976158,27475.783,27477.19999998808,27492.45,27709.121,,white
,Trial,flow.Sequence,3_5_0,2022-03-01T09:42:30.601Z,,,,0,V,2731.8339999761592,completion,,,,27696.30000001192,27690.899999976158,24942.399,24943.399999976158,24959.066,27709.121,,white
,Frame,canvas.Frame,3_5,2022-03-01T09:42:30.602Z,,,,0,V,2737.434000000001,,,,,27696.80000001192,27696.5,24942.399,24942.399999976158,24959.066,27709.121,,white
,Fixation,canvas.Screen,3_6_0_0,2022-03-01T09:42:32.883Z,,,,1,A,2283.379000000001,timeout,,,,29977.599999964237,29975.833,27692.454,27698,27709.121,29992.5,,grey
,Stimulus,canvas.Screen,3_6_0_1,2022-03-01T09:42:32.982Z,,,,1,A,100.00200000000041,timeout,,,,30077.30000001192,30075.835,29975.833,29978,29992.5,30092.502,,grey
,Reaction,canvas.Screen,3_6_0_2,2022-03-01T09:42:33.307Z,,,,1,A,305.9979999999996,response,,stim_detected,keydown(Space),30402,30398.5,30075.835,30077.5,30092.502,30409.175,,grey
,Trial,flow.Sequence,3_6_0,2022-03-01T09:42:33.307Z,,,,1,A,2689.379000000001,completion,,,,30402.099999964237,30398.5,27692.454,27697.80000001192,27709.121,30409.175,,grey
,Frame,canvas.Frame,3_6,2022-03-01T09:42:33.307Z,,,,1,A,2693.07899998808,,,,,30402.30000001192,30402.19999998808,27692.454,27696.899999976158,27709.121,30409.175,,grey
,Fixation,canvas.Screen,3_7_0_0,2022-03-01T09:42:35.766Z,,,,1,VA,2483.382999999998,timeout,,,,32861.30000001192,32859.224,30392.508,30403,30409.175,32892.558,,white
,Stimulus,canvas.Screen,3_7_0_1,2022-03-01T09:42:35.883Z,,,,1,VA,100.00200000000041,timeout,,,,32978.19999998808,32975.893,32859.224,32861.5,32892.558,32992.56,,white
,Reaction,canvas.Screen,3_7_0_2,2022-03-01T09:42:36.087Z,,,,1,VA,184.83999997616047,response,,stim_detected,keydown(Space),33181.80000001192,33177.39999997616,32975.893,32978.30000001192,32992.56,33192.564,,white
,Trial,flow.Sequence,3_7_0,2022-03-01T09:42:36.087Z,,,,1,VA,2768.224999976159,completion,,,,33182.09999996424,33177.39999997616,30392.508,30403,30409.175,33192.564,,white
,Frame,canvas.Frame,3_7,2022-03-01T09:42:36.088Z,,,,1,VA,2773.02499998808,,,,,33182.39999997616,33182.19999998808,30392.508,30402.399999976158,30409.175,33192.564,,white
,Fixation,canvas.Screen,3_8_0_0,2022-03-01T09:42:38.484Z,,,,1,VA,2400.0480000000025,timeout,,,,35578.30000001192,35575.945,33175.897,33183.59999996424,33192.564,35592.612,,white
,Stimulus,canvas.Screen,3_8_0_1,2022-03-01T09:42:38.583Z,,,,1,VA,100.00200000000041,timeout,,,,35677.30000001192,35675.947,35575.945,35578.5,35592.612,35692.614,,white
,Reaction,canvas.Screen,3_8_0_2,2022-03-01T09:42:38.767Z,,,,1,VA,164.78599997615675,response,,stim_detected,keydown(Space),35861.80000001192,35857.39999997616,35675.947,35677.39999997616,35692.614,35875.951,,white
,Trial,flow.Sequence,3_8_0,2022-03-01T09:42:38.767Z,,,,1,VA,2664.8359999761597,completion,,,,35862.09999996424,35857.39999997616,33175.897,33183.59999996424,33192.564,35875.951,,white
,Frame,canvas.Frame,3_8,2022-03-01T09:42:38.768Z,,,,1,VA,2669.6359999880806,,,,,35862.30000001192,35862.19999998808,33175.897,33182.59999996424,33192.564,35875.951,,white
,Fixation,canvas.Screen,3_9_0_0,2022-03-01T09:42:41.251Z,,,,1,VA,2483.3830000000016,timeout,,,,38345.59999996424,38342.667,35859.284,35863.39999997616,35875.951,38359.334,,white
,Stimulus,canvas.Screen,3_9_0_1,2022-03-01T09:42:41.350Z,,,,1,VA,100.00200000000041,timeout,,,,38445.09999996424,38442.669,38342.667,38345.89999997616,38359.334,38459.336,,white
,Reaction,canvas.Screen,3_9_0_2,2022-03-01T09:42:41.544Z,,,,1,VA,174.76399996423424,response,,stim_detected,keydown(Space),38638.80000001192,38634.09999996424,38442.669,38445.39999997616,38459.336,38642.673,,white
,Trial,flow.Sequence,3_9_0,2022-03-01T09:42:41.544Z,,,,1,VA,2758.1489999642363,completion,,,,38639.19999998808,38634.09999996424,35859.284,35863.30000001192,35875.951,38642.673,,white
,Frame,canvas.Frame,3_9,2022-03-01T09:42:41.545Z,,,,1,VA,2763.248999988078,,,,,38639.30000001192,38639.19999998808,35859.284,35862.39999997616,35875.951,38642.673,,white
,Fixation,canvas.Screen,3_10_0_0,2022-03-01T09:42:43.434Z,,,,0,V,1900.0380000000005,timeout,,,,40528.19999998808,40526.044,38626.006,38640.39999997616,38642.673,40542.711,,white
,Stimulus,canvas.Screen,3_10_0_1,2022-03-01T09:42:43.534Z,,,,0,V,100.00200000000041,timeout,,,,40628.19999998808,40626.046,40526.044,40528.39999997616,40542.711,40642.713,,white
,Reaction,canvas.Screen,3_10_0_2,2022-03-01T09:42:43.805Z,,,,0,V,251.4869999880757,response,,stim_detected,keydown(Space),40899.19999998808,40894.19999998808,40626.046,40628.5,40642.713,40909.385,,white
,Trial,flow.Sequence,3_10_0,2022-03-01T09:42:43.805Z,,,,0,V,2251.5269999880766,completion,,,,40899.39999997616,40894.19999998808,38626.006,38640.39999997616,38642.673,40909.385,,white
,Frame,canvas.Frame,3_10,2022-03-01T09:42:43.805Z,,,,0,V,2256.8269999999975,,,,,40899.59999996424,40899.5,38626.006,38639.5,38642.673,40909.385,,white
,Fixation,canvas.Screen,3_11_0_0,2022-03-01T09:42:45.850Z,,,,1,VA,2050.0409999999974,timeout,,,,42944.69999998808,42942.759,40892.718,40900.80000001192,40909.385,42959.426,,white
,Stimulus,canvas.Screen,3_11_0_1,2022-03-01T09:42:45.950Z,,,,1,VA,100.00200000000041,timeout,,,,43044.89999997616,43042.761,42942.759,42945,42959.426,43059.428,,white
,Reaction,canvas.Screen,3_11_0_2,2022-03-01T09:42:46.224Z,,,,1,VA,254.37200001192105,response,,stim_detected,keydown(Space),43318.39999997616,43313.80000001192,43042.761,43045.19999998808,43059.428,43326.1,,white
,Trial,flow.Sequence,3_11_0,2022-03-01T09:42:46.224Z,,,,1,VA,2404.415000011919,completion,,,,43318.69999998808,43313.80000001192,40892.718,40900.69999998808,40909.385,43326.1,,white
,Frame,canvas.Frame,3_11,2022-03-01T09:42:46.224Z,,,,1,VA,2409.415000011919,,,,,43318.89999997616,43318.80000001192,40892.718,40899.80000001192,40909.385,43326.1,,white
,Fixation,canvas.Screen,3_12_0_0,2022-03-01T09:42:48.268Z,,,,1,VA,2050.0410000000047,timeout,,,,45362.19999998808,45359.474,43309.433,43319.89999997616,43326.1,45376.141,,white
,Stimulus,canvas.Screen,3_12_0_1,2022-03-01T09:42:48.366Z,,,,1,VA,100.00199999999313,timeout,,,,45461,45459.476,45359.474,45362.39999997616,45376.141,45476.143,,white
,Reaction,canvas.Screen,3_12_0_2,2022-03-01T09:42:48.562Z,,,,1,VA,175.75699997616175,response,,stim_detected,keydown(Space),45656.09999996424,45651.89999997616,45459.476,45461.30000001192,45476.143,45659.48,,white
,Trial,flow.Sequence,3_12_0,2022-03-01T09:42:48.562Z,,,,1,VA,2325.7999999761596,completion,,,,45656.39999997616,45651.89999997616,43309.433,43319.80000001192,43326.1,45659.48,,white
,Frame,canvas.Frame,3_12,2022-03-01T09:42:48.562Z,,,,1,VA,2330.2999999761596,,,,,45656.59999996424,45656.39999997616,43309.433,43319,43326.1,45659.48,,white
,Fixation,canvas.Screen,3_13_0_0,2022-03-01T09:42:50.516Z,,,,0,V,1966.7059999999983,timeout,,,,47610.39999997616,47609.519,45642.813,45657.59999996424,45659.48,47626.186,,white
,Stimulus,canvas.Screen,3_13_0_1,2022-03-01T09:42:50.618Z,,,,0,V,100.00200000000041,timeout,,,,47712.19999998808,47709.521,47609.519,47610.59999996424,47626.186,47726.188,,white
,Reaction,canvas.Screen,3_13_0_2,2022-03-01T09:42:50.811Z,,,,0,V,174.51199998807715,response,,stim_detected,keydown(Space),47905.30000001192,47900.69999998808,47709.521,47712.39999997616,47726.188,47909.525,,white
,Trial,flow.Sequence,3_13_0,2022-03-01T09:42:50.811Z,,,,0,V,2241.219999988076,completion,,,,47905.59999996424,47900.69999998808,45642.813,45657.59999996424,45659.48,47909.525,,white
,Frame,canvas.Frame,3_13,2022-03-01T09:42:50.811Z,,,,0,V,2246.119999964234,,,,,47905.69999998808,47905.59999996424,45642.813,45656.69999998808,45659.48,47909.525,,white
,Fixation,canvas.Screen,3_14_0_0,2022-03-01T09:42:53.034Z,,,,0,V,2233.377999999997,timeout,,,,50128.69999998808,50126.236,47892.858,47906.69999998808,47909.525,50142.903,,white
,Stimulus,canvas.Screen,3_14_0_1,2022-03-01T09:42:53.133Z,,,,0,V,100.00200000000041,timeout,,,,50227.5,50226.238,50126.236,50128.89999997616,50142.903,50242.905,,white
,Reaction,canvas.Screen,3_14_0_2,2022-03-01T09:42:53.373Z,,,,0,V,219.69499996423838,response,,stim_detected,keydown(Space),50467.30000001192,50462.59999996424,50226.238,50227.59999996424,50242.905,50492.91,,white
,Trial,flow.Sequence,3_14_0,2022-03-01T09:42:53.373Z,,,,0,V,2553.0749999642358,completion,,,,50467.59999996424,50462.59999996424,47892.858,47906.69999998808,47909.525,50492.91,,white
,Frame,canvas.Frame,3_14,2022-03-01T09:42:53.373Z,,,,0,V,2558.1749999880776,,,,,50467.80000001192,50467.69999998808,47892.858,47905.89999997616,47909.525,50492.91,,white
,Fixation,canvas.Screen,3_15_0_0,2022-03-01T09:42:54.950Z,,,,0,V,1566.6979999999967,timeout,,,,52044.5,52042.941,50459.576,50468.89999997616,50492.91,52059.608,,white
,Stimulus,canvas.Screen,3_15_0_1,2022-03-01T09:42:55.051Z,,,,0,V,100.00200000000041,timeout,,,,52144.89999997616,52142.943,52042.941,52044.69999998808,52059.608,52159.61,,white
,Reaction,canvas.Screen,3_15_0_2,2022-03-01T09:42:55.565Z,,,,0,V,494.78999997615756,response,,stim_detected,keydown(Space),52659.30000001192,52654.39999997616,52142.943,52145.09999996424,52159.61,52676.287,,white
,Trial,flow.Sequence,3_15_0,2022-03-01T09:42:55.565Z,,,,0,V,2161.4899999761546,completion,,,,52659.59999996424,52654.39999997616,50459.576,50468.80000001192,50492.91,52676.287,,white
,Frame,canvas.Frame,3_15,2022-03-01T09:42:55.566Z,,,,0,V,2166.7899999880756,,,,,52659.89999997616,52659.69999998808,50459.576,50468,50492.91,52676.287,,white
,Fixation,canvas.Screen,3_16_0_0,2022-03-01T09:42:57.301Z,,,,1,VA,1733.3680000000022,timeout,,,,54395.5,54392.988,52659.62,52661,52676.287,54409.655,,white
,Stimulus,canvas.Screen,3_16_0_1,2022-03-01T09:42:57.402Z,,,,1,VA,100.00200000000041,timeout,,,,54495.89999997616,54492.99,54392.988,54395.69999998808,54409.655,54509.657,,white
,Reaction,canvas.Screen,3_16_0_2,2022-03-01T09:42:57.612Z,,,,1,VA,192.64300001192169,response,,stim_detected,keydown(Space),54706.69999998808,54702.30000001192,54492.99,54496,54509.657,54709.661,,white
,Trial,flow.Sequence,3_16_0,2022-03-01T09:42:57.613Z,,,,1,VA,2026.0130000119243,completion,,,,54706.89999997616,54702.30000001192,52659.62,52660.80000001192,52676.287,54709.661,,white
,Frame,canvas.Frame,3_16,2022-03-01T09:42:57.613Z,,,,1,VA,2030.8129999642406,,,,,54707.39999997616,54707.09999996424,52659.62,52659.89999997616,52676.287,54709.661,,white
,Fixation,canvas.Screen,3_17_0_0,2022-03-01T09:42:59.567Z,,,,0,V,1966.7059999999983,timeout,,,,56661.5,56659.7,54692.994,54708.59999996424,54709.661,56676.367,,white
,Stimulus,canvas.Screen,3_17_0_1,2022-03-01T09:42:59.668Z,,,,0,V,100.00200000000041,timeout,,,,56761.80000001192,56759.702,56659.7,56661.59999996424,56676.367,56776.369,,white
,Reaction,canvas.Screen,3_17_0_2,2022-03-01T09:42:59.980Z,,,,0,V,285.73099996423844,response,,stim_detected,keydown(Space),57073.89999997616,57062.09999996424,56759.702,56762,56776.369,57076.375,,white
,Trial,flow.Sequence,3_17_0,2022-03-01T09:42:59.980Z,,,,0,V,2352.438999964237,completion,,,,57074.09999996424,57062.09999996424,54692.994,54708.39999997616,54709.661,57076.375,,white
,Frame,canvas.Frame,3_17,2022-03-01T09:42:59.980Z,,,,0,V,2364.538999988079,,,,,57074.30000001192,57074.19999998808,54692.994,54707.59999996424,54709.661,57076.375,,white
,Fixation,canvas.Screen,3_18_0_0,2022-03-01T09:43:02.318Z,,,,1,VA,2350.0469999999987,timeout,,,,59412.19999998808,59409.755,57059.708,57074.89999997616,57076.375,59426.422,,white
,Stimulus,canvas.Screen,3_18_0_1,2022-03-01T09:43:02.416Z,,,,1,VA,100.00200000000041,timeout,,,,59510.5,59509.757,59409.755,59412.30000001192,59426.422,59526.424,,white
,Reaction,canvas.Screen,3_18_0_2,2022-03-01T09:43:02.603Z,,,,1,VA,165.67599996423814,response,,stim_detected,keydown(Space),59696.69999998808,59692.09999996424,59509.757,59510.59999996424,59526.424,59709.761,,white
,Trial,flow.Sequence,3_18_0,2022-03-01T09:43:02.603Z,,,,1,VA,2615.724999964237,completion,,,,59697.09999996424,59692.09999996424,57059.708,57074.89999997616,57076.375,59709.761,,white
,Frame,canvas.Frame,3_18,2022-03-01T09:43:02.603Z,,,,1,VA,2620.724999964237,,,,,59697.30000001192,59697.09999996424,57059.708,57074.39999997616,57076.375,59709.761,,white
,Fixation,canvas.Screen,3_19_0_0,2022-03-01T09:43:04.135Z,,,,1,VA,1533.3640000000014,timeout,,,,61229.39999997616,61226.458,59693.094,59698.39999997616,59709.761,61243.125,,white
,Stimulus,canvas.Screen,3_19_0_1,2022-03-01T09:43:04.235Z,,,,1,VA,100.00200000000041,timeout,,,,61328.89999997616,61326.46,61226.458,61229.59999996424,61243.125,61343.127,,white
,Reaction,canvas.Screen,3_19_0_2,2022-03-01T09:43:04.538Z,,,,1,VA,283.8729999999996,response,,stim_detected,keydown(Space),61631.80000001192,61627,61326.46,61329.09999996424,61343.127,61643.133,,white
,Trial,flow.Sequence,3_19_0,2022-03-01T09:43:04.538Z,,,,1,VA,1917.2390000000014,completion,,,,61632.19999998808,61627,59693.094,59698.30000001192,59709.761,61643.133,,white
,Frame,canvas.Frame,3_19,2022-03-01T09:43:04.538Z,,,,1,VA,1922.4389999880805,,,,,61632.5,61632.19999998808,59693.094,59697.39999997616,59709.761,61643.133,,white
,Fixation,canvas.Screen,3_20_0_0,2022-03-01T09:43:06.201Z,,,,1,VA,1666.699999999997,timeout,,,,63295.19999998808,63293.166,61626.466,61633.59999996424,61643.133,63309.833,,white
,Stimulus,canvas.Screen,3_20_0_1,2022-03-01T09:43:06.302Z,,,,1,VA,100.00200000000041,timeout,,,,63396.30000001192,63393.168,63293.166,63295.39999997616,63309.833,63409.835,,white
,Reaction,canvas.Screen,3_20_0_2,2022-03-01T09:43:06.579Z,,,,1,VA,259.064999976159,response,,stim_detected,keydown(Space),63673.39999997616,63668.89999997616,63393.168,63396.5,63409.835,63676.507,,white
,Trial,flow.Sequence,3_20_0,2022-03-01T09:43:06.580Z,,,,1,VA,2025.7669999761565,completion,,,,63673.59999996424,63668.89999997616,61626.466,61633.59999996424,61643.133,63676.507,,white
,Frame,canvas.Frame,3_20,2022-03-01T09:43:06.580Z,,,,1,VA,2030.6670000119193,,,,,63673.89999997616,63673.80000001192,61626.466,61632.59999996424,61643.133,63676.507,,white
,Fixation,canvas.Screen,3_21_0_0,2022-03-01T09:43:08.202Z,,,,1,A,1633.3660000000018,timeout,,,,65295.89999997616,65293.206,63659.84,63674.80000001192,63676.507,65309.873,,grey
,Stimulus,canvas.Screen,3_21_0_1,2022-03-01T09:43:08.301Z,,,,1,A,100.00200000000041,timeout,,,,65395,65393.208,65293.206,65296.19999998808,65309.873,65409.875,,grey
,Reaction,canvas.Screen,3_21_0_2,2022-03-01T09:43:08.580Z,,,,1,A,258.82499998807907,response,,stim_detected,keydown(Space),65673.39999997616,65668.69999998808,65393.208,65395.09999996424,65409.875,65676.547,,grey
,Trial,flow.Sequence,3_21_0,2022-03-01T09:43:08.580Z,,,,1,A,1992.1929999880813,completion,,,,65673.80000001192,65668.69999998808,63659.84,63674.80000001192,63676.507,65676.547,,grey
,Frame,canvas.Frame,3_21,2022-03-01T09:43:08.580Z,,,,1,A,1997.2930000119231,,,,,65673.89999997616,65673.80000001192,63659.84,63674,63676.507,65676.547,,grey
,Fixation,canvas.Screen,3_22_0_0,2022-03-01T09:43:10.935Z,,,,1,VA,2366.7139999999927,timeout,,,,68028.59999996424,68026.594,65659.88,65675,65676.547,68043.261,,white
,Stimulus,canvas.Screen,3_22_0_1,2022-03-01T09:43:11.035Z,,,,1,VA,100.00200000000768,timeout,,,,68129.09999996424,68126.596,68026.594,68028.89999997616,68043.261,68143.263,,white
,Reaction,canvas.Screen,3_22_0_2,2022-03-01T09:43:11.231Z,,,,1,VA,177.13699997615186,response,,stim_detected,keydown(Space),68324.69999998808,68320.39999997616,68126.596,68129.30000001192,68143.263,68326.6,,white
,Trial,flow.Sequence,3_22_0,2022-03-01T09:43:11.231Z,,,,1,VA,2643.852999976152,completion,,,,68325,68320.39999997616,65659.88,65674.89999997616,65676.547,68326.6,,white
,Frame,canvas.Frame,3_22,2022-03-01T09:43:11.231Z,,,,1,VA,2648.5529999642313,,,,,68325.19999998808,68325.09999996424,65659.88,65674.09999996424,65676.547,68326.6,,white
,Fixation,canvas.Screen,3_23_0_0,2022-03-01T09:43:13.452Z,,,,1,VA,2233.377999999997,timeout,,,,70545.59999996424,70543.311,68309.933,68326.5,68326.6,70559.978,,white
,Stimulus,canvas.Screen,3_23_0_1,2022-03-01T09:43:13.552Z,,,,1,VA,100.00199999999313,timeout,,,,70645.30000001192,70643.313,70543.311,70545.80000001192,70559.978,70659.98,,white
,Reaction,canvas.Screen,3_23_0_2,2022-03-01T09:43:13.747Z,,,,1,VA,176.52000000000407,response,,stim_detected,keydown(Space),70840.80000001192,70836.5,70643.313,70645.5,70659.98,70843.317,,white
,Trial,flow.Sequence,3_23_0,2022-03-01T09:43:13.747Z,,,,1,VA,2509.899999999994,completion,,,,70841.09999996424,70836.5,68309.933,68326.30000001192,68326.6,70843.317,,white
,Frame,canvas.Frame,3_23,2022-03-01T09:43:13.748Z,,,,1,VA,2514.5999999880733,,,,,70841.19999998808,70841.19999998808,68309.933,68325.30000001192,68326.6,70843.317,,white
,Fixation,canvas.Screen,3_24_0_0,2022-03-01T09:43:15.752Z,,,,0,V,2016.7070000000094,timeout,,,,72845.5,72843.357,70826.65,70842.30000001192,70843.317,72860.024,,white
,Stimulus,canvas.Screen,3_24_0_1,2022-03-01T09:43:15.852Z,,,,0,V,100.00199999999313,timeout,,,,72946.09999996424,72943.359,72843.357,72845.69999998808,72860.024,72960.026,,white
,Reaction,canvas.Screen,3_24_0_2,2022-03-01T09:43:16.052Z,,,,0,V,180.2740000119229,response,,stim_detected,keydown(Space),73145.39999997616,73140.30000001192,72943.359,72946.19999998808,72960.026,73160.03,,white
,Trial,flow.Sequence,3_24_0,2022-03-01T09:43:16.052Z,,,,0,V,2296.9830000119255,completion,,,,73145.69999998808,73140.30000001192,70826.65,70842.19999998808,70843.317,73160.03,,white
,Frame,canvas.Frame,3_24,2022-03-01T09:43:16.052Z,,,,0,V,2302.4830000119255,,,,,73145.89999997616,73145.80000001192,70826.65,70841.39999997616,70843.317,73160.03,,white
,Fixation,canvas.Screen,3_25_0_0,2022-03-01T09:43:18.285Z,,,,1,A,2233.377999999997,timeout,,,,75379,75376.741,73143.363,73146.89999997616,73160.03,75393.408,,grey
,Stimulus,canvas.Screen,3_25_0_1,2022-03-01T09:43:18.386Z,,,,1,A,100.00200000000768,timeout,,,,75479.09999996424,75476.743,75376.741,75379.19999998808,75393.408,75493.41,,grey
,Reaction,canvas.Screen,3_25_0_2,2022-03-01T09:43:18.662Z,,,,1,A,257.6899999642337,response,,stim_detected,keydown(Space),75755.30000001192,75751.09999996424,75476.743,75479.30000001192,75493.41,75760.082,,grey
,Trial,flow.Sequence,3_25_0,2022-03-01T09:43:18.662Z,,,,1,A,2591.0699999642384,completion,,,,75755.59999996424,75751.09999996424,73143.363,73146.80000001192,73160.03,75760.082,,grey
,Frame,canvas.Frame,3_25,2022-03-01T09:43:18.662Z,,,,1,A,2595.6699999880802,,,,,75755.80000001192,75755.69999998808,73143.363,73146,73160.03,75760.082,,grey
,Fixation,canvas.Screen,3_26_0_0,2022-03-01T09:43:20.952Z,,,,1,VA,2316.7130000000034,timeout,,,,78045.89999997616,78043.461,75743.415,75756.89999997616,75760.082,78076.795,,white
,Stimulus,canvas.Screen,3_26_0_1,2022-03-01T09:43:21.070Z,,,,1,VA,100.00200000000768,timeout,,,,78163.09999996424,78160.13,78043.461,78046.09999996424,78076.795,78176.797,,white
,Reaction,canvas.Screen,3_26_0_2,2022-03-01T09:43:21.266Z,,,,1,VA,178.20299999999406,response,,stim_detected,keydown(Space),78359.39999997616,78355,78160.13,78163.39999997616,78176.797,78376.801,,white
,Trial,flow.Sequence,3_26_0,2022-03-01T09:43:21.266Z,,,,1,VA,2594.918000000005,completion,,,,78359.69999998808,78355,75743.415,75756.89999997616,75760.082,78376.801,,white
,Frame,canvas.Frame,3_26,2022-03-01T09:43:21.266Z,,,,1,VA,2599.718000011926,,,,,78359.89999997616,78359.80000001192,75743.415,75756,75760.082,78376.801,,white
,Fixation,canvas.Screen,3_27_0_0,2022-03-01T09:43:23.152Z,,,,1,A,1883.3709999999992,timeout,,,,80245.5,80243.505,78360.134,78361,78376.801,80260.172,,grey
,Stimulus,canvas.Screen,3_27_0_1,2022-03-01T09:43:23.252Z,,,,1,A,100.00199999999313,timeout,,,,80345.59999996424,80343.507,80243.505,80245.59999996424,80260.172,80360.174,,grey
,Reaction,canvas.Screen,3_27_0_2,2022-03-01T09:43:23.562Z,,,,1,A,290.62600001192186,response,,stim_detected,keydown(Space),80655.09999996424,80650.80000001192,80343.507,80345.80000001192,80360.174,80660.18,,grey
,Trial,flow.Sequence,3_27_0,2022-03-01T09:43:23.562Z,,,,1,A,2273.999000011914,completion,,,,80655.39999997616,80650.80000001192,78360.134,78361,78376.801,80660.18,,grey
,Frame,canvas.Frame,3_27,2022-03-01T09:43:23.562Z,,,,1,A,2278.7989999642305,,,,,80655.59999996424,80655.59999996424,78360.134,78360,78376.801,80660.18,,grey
,Fixation,canvas.Screen,3_28_0_0,2022-03-01T09:43:25.669Z,,,,1,A,2116.7090000000026,timeout,,,,82762.39999997616,82760.222,80643.513,80656.59999996424,80660.18,82776.889,,grey
,Stimulus,canvas.Screen,3_28_0_1,2022-03-01T09:43:25.769Z,,,,1,A,100.00200000000768,timeout,,,,82862.19999998808,82860.224,82760.222,82762.89999997616,82776.889,82876.891,,grey
,Reaction,canvas.Screen,3_28_0_2,2022-03-01T09:43:26.031Z,,,,1,A,242.90900001191767,response,,stim_detected,keydown(Space),83124.09999996424,83119.80000001192,82860.224,82862.5,82876.891,83126.896,,grey
,Trial,flow.Sequence,3_28_0,2022-03-01T09:43:26.031Z,,,,1,A,2459.620000011928,completion,,,,83124.5,83119.80000001192,80643.513,80656.59999996424,80660.18,83126.896,,grey
,Frame,canvas.Frame,3_28,2022-03-01T09:43:26.031Z,,,,1,A,2464.320000000007,,,,,83124.69999998808,83124.5,80643.513,80655.80000001192,80660.18,83126.896,,grey
,Fixation,canvas.Screen,3_29_0_0,2022-03-01T09:43:28.419Z,,,,1,A,2400.04800000001,timeout,,,,85512.5,85510.277,83110.229,83125.80000001192,83126.896,85526.944,,grey
,Stimulus,canvas.Screen,3_29_0_1,2022-03-01T09:43:28.519Z,,,,1,A,100.00199999999313,timeout,,,,85612.19999998808,85610.279,85510.277,85512.80000001192,85526.944,85626.946,,grey
,Reaction,canvas.Screen,3_29_0_2,2022-03-01T09:43:28.782Z,,,,1,A,242.65399996424094,response,,stim_detected,keydown(Space),85874.80000001192,85869.59999996424,85610.279,85612.5,85626.946,85876.951,,grey
,Trial,flow.Sequence,3_29_0,2022-03-01T09:43:28.782Z,,,,1,A,2742.703999964244,completion,,,,85875.09999996424,85869.59999996424,83110.229,83125.59999996424,83126.896,85876.951,,grey
,Frame,canvas.Frame,3_29,2022-03-01T09:43:28.782Z,,,,1,A,2748.3039999880857,,,,,85875.30000001192,85875.19999998808,83110.229,83124.80000001192,83126.896,85876.951,,grey
,Fixation,canvas.Screen,3_30_0_0,2022-03-01T09:43:30.469Z,,,,1,VA,1700.0339999999997,timeout,,,,87562.5,87560.318,85860.284,85876.30000001192,85876.951,87576.985,,white
,Stimulus,canvas.Screen,3_30_0_1,2022-03-01T09:43:30.568Z,,,,1,VA,100.00199999999313,timeout,,,,87661.69999998808,87660.32,87560.318,87562.69999998808,87576.985,87676.987,,white
,Reaction,canvas.Screen,3_30_0_2,2022-03-01T09:43:32.070Z,,,,1,VA,1500.0300000000134,timeout,,,,89163.09999996424,89160.35,87660.32,87661.80000001192,87676.987,89177.017,,white
,Trial,flow.Sequence,3_30_0,2022-03-01T09:43:32.070Z,,,,1,VA,3283.399000000005,completion,,,,89163.30000001192,89160.35,85860.284,85876.30000001192,85876.951,89177.017,,white
,Frame,canvas.Frame,3_30,2022-03-01T09:43:32.070Z,,,,1,VA,3286.448999976157,,,,,89163.59999996424,89163.39999997616,85860.284,85875.39999997616,85876.951,89193.684,,white
,Fixation,canvas.Screen,3_31_0_0,2022-03-01T09:43:33.752Z,,,,1,VA,1666.7000000000116,timeout,,,,90845,90843.717,89177.017,89164.5,89193.684,90860.384,,white
,Stimulus,canvas.Screen,3_31_0_1,2022-03-01T09:43:33.853Z,,,,1,VA,100.00199999999313,timeout,,,,90946.09999996424,90943.719,90843.717,90845.30000001192,90860.384,90960.386,,white
,Reaction,canvas.Screen,3_31_0_2,2022-03-01T09:43:34.030Z,,,,1,VA,158.01399997615954,response,,stim_detected,keydown(Space),91123,91118.39999997616,90943.719,90946.30000001192,90960.386,91127.056,,white
,Trial,flow.Sequence,3_31_0,2022-03-01T09:43:34.030Z,,,,1,VA,1924.7159999761643,completion,,,,91123.30000001192,91118.39999997616,89177.017,89164.5,89193.684,91127.056,,white
,Frame,canvas.Frame,3_31,2022-03-01T09:43:34.030Z,,,,1,VA,1929.616000011927,,,,,91123.5,91123.30000001192,89177.017,89163.59999996424,89193.684,91127.056,,white
,Fixation,canvas.Screen,3_32_0_0,2022-03-01T09:43:35.935Z,,,,1,A,1916.7050000000017,timeout,,,,93028.09999996424,93027.094,91110.389,91124.59999996424,91127.056,93043.761,,grey
,Stimulus,canvas.Screen,3_32_0_1,2022-03-01T09:43:36.036Z,,,,1,A,100.00200000000768,timeout,,,,93129.09999996424,93127.096,93027.094,93028.30000001192,93043.761,93143.763,,grey
,Reaction,canvas.Screen,3_32_0_2,2022-03-01T09:43:36.330Z,,,,1,A,275.4369999880728,response,,stim_detected,keydown(Space),93423.5,93419.19999998808,93127.096,93129.19999998808,93143.763,93427.102,,grey
,Trial,flow.Sequence,3_32_0,2022-03-01T09:43:36.331Z,,,,1,A,2292.143999988082,completion,,,,93423.80000001192,93419.19999998808,91110.389,91124.5,91127.056,93427.102,,grey
,Frame,canvas.Frame,3_32,2022-03-01T09:43:36.331Z,,,,1,A,2296.744000011924,,,,,93424,93423.80000001192,91110.389,91123.59999996424,91127.056,93427.102,,grey
,Fixation,canvas.Screen,3_33_0_0,2022-03-01T09:43:38.270Z,,,,1,VA,1950.0390000000043,timeout,,,,95362.69999998808,95360.474,93410.435,93424.89999997616,93427.102,95377.141,,white
,Stimulus,canvas.Screen,3_33_0_1,2022-03-01T09:43:38.369Z,,,,1,VA,100.00199999999313,timeout,,,,95462.19999998808,95460.476,95360.474,95362.89999997616,95377.141,95477.143,,white
,Reaction,canvas.Screen,3_33_0_2,2022-03-01T09:43:38.610Z,,,,1,VA,220.95699996424082,response,,stim_detected,keydown(Space),95703.19999998808,95698.09999996424,95460.476,95462.39999997616,95477.143,95710.481,,white
,Trial,flow.Sequence,3_33_0,2022-03-01T09:43:38.611Z,,,,1,VA,2270.9979999642383,completion,,,,95703.59999996424,95698.09999996424,93410.435,93424.89999997616,93427.102,95710.481,,white
,Frame,canvas.Frame,3_33,2022-03-01T09:43:38.611Z,,,,1,VA,2276.59799998808,,,,,95703.69999998808,95703.69999998808,93410.435,93424.09999996424,93427.102,95710.481,,white
,Fixation,canvas.Screen,3_34_0_0,2022-03-01T09:43:41.019Z,,,,0,V,2416.7149999999965,timeout,,,,98112,98110.529,95693.814,95704.80000001192,95710.481,98127.196,,white
,Stimulus,canvas.Screen,3_34_0_1,2022-03-01T09:43:41.120Z,,,,0,V,100.00200000000768,timeout,,,,98213.09999996424,98210.531,98110.529,98112.09999996424,98127.196,98227.198,,white
,Reaction,canvas.Screen,3_34_0_2,2022-03-01T09:43:41.337Z,,,,0,V,197.80199999999604,response,,stim_detected,keydown(Space),98429.69999998808,98425,98210.531,98213.30000001192,98227.198,98443.869,,white
,Trial,flow.Sequence,3_34_0,2022-03-01T09:43:41.337Z,,,,0,V,2714.5190000000002,completion,,,,98430,98425,95693.814,95704.80000001192,95710.481,98443.869,,white
,Frame,canvas.Frame,3_34,2022-03-01T09:43:41.337Z,,,,0,V,2719.6189999642374,,,,,98430.19999998808,98430.09999996424,95693.814,95703.89999997616,95710.481,98443.869,,white
,Fixation,canvas.Screen,3_35_0_0,2022-03-01T09:43:43.804Z,,,,1,A,2466.7160000000003,timeout,,,,100896.69999998808,100893.918,98427.202,98431.39999997616,98443.869,100910.585,,grey
,Stimulus,canvas.Screen,3_35_0_1,2022-03-01T09:43:43.903Z,,,,1,A,100.00199999999313,timeout,,,,100996.09999996424,100993.92,100893.918,100897,100910.585,101010.587,,grey
,Reaction,canvas.Screen,3_35_0_2,2022-03-01T09:43:44.199Z,,,,1,A,274.2130000119214,response,,stim_detected,keydown(Space),101291.59999996424,101284.80000001192,100993.92,100996.30000001192,101010.587,101293.926,,grey
,Trial,flow.Sequence,3_35_0,2022-03-01T09:43:44.199Z,,,,1,A,2840.931000011915,completion,,,,101291.89999997616,101284.80000001192,98427.202,98431.39999997616,98443.869,101293.926,,grey
,Frame,canvas.Frame,3_35,2022-03-01T09:43:44.199Z,,,,1,A,2848.230999964231,,,,,101292.19999998808,101292.09999996424,98427.202,98430.5,98443.869,101293.926,,grey
,Fixation,canvas.Screen,3_36_0_0,2022-03-01T09:43:45.970Z,,,,1,A,1783.3689999999915,timeout,,,,103063,103060.628,101277.259,101293.09999996424,101293.926,103077.295,,grey
,Stimulus,canvas.Screen,3_36_0_1,2022-03-01T09:43:46.070Z,,,,1,A,100.00200000000768,timeout,,,,103162.5,103160.63,103060.628,103063.19999998808,103077.295,103177.297,,grey
,Reaction,canvas.Screen,3_36_0_2,2022-03-01T09:43:46.442Z,,,,1,A,352.3029999642313,response,,stim_detected,keydown(Space),103534.39999997616,103529.59999996424,103160.63,103162.69999998808,103177.297,103543.971,,grey
,Trial,flow.Sequence,3_36_0,2022-03-01T09:43:46.442Z,,,,1,A,2235.6739999642305,completion,,,,103534.59999996424,103529.59999996424,101277.259,101293.09999996424,101293.926,103543.971,,grey
,Frame,canvas.Frame,3_36,2022-03-01T09:43:46.442Z,,,,1,A,2240.874000011914,,,,,103534.89999997616,103534.80000001192,101277.259,101292.30000001192,101293.926,103543.971,,grey
,Fixation,canvas.Screen,3_37_0_0,2022-03-01T09:43:48.003Z,,,,1,VA,1566.6979999999894,timeout,,,,105095.59999996424,105094.002,103527.304,103536,103543.971,105110.669,,white
,Stimulus,canvas.Screen,3_37_0_1,2022-03-01T09:43:48.116Z,,,,1,VA,100.00200000000768,timeout,,,,105209.09999996424,105194.004,105094.002,105095.80000001192,105110.669,105210.671,,white
,Reaction,canvas.Screen,3_37_0_2,2022-03-01T09:43:48.313Z,,,,1,VA,190.92899996423512,response,,stim_detected,keydown(Space),105406.09999996424,105401.59999996424,105194.004,105209.19999998808,105210.671,105410.675,,white
,Trial,flow.Sequence,3_37_0,2022-03-01T09:43:48.314Z,,,,1,VA,1857.6289999642322,completion,,,,105406.59999996424,105401.59999996424,103527.304,103535.89999997616,103543.971,105410.675,,white
,Frame,canvas.Frame,3_37,2022-03-01T09:43:48.314Z,,,,1,VA,1862.728999988074,,,,,105406.80000001192,105406.69999998808,103527.304,103535,103543.971,105410.675,,white
,Fixation,canvas.Screen,3_38_0_0,2022-03-01T09:43:50.104Z,,,,1,VA,1800.0359999999928,timeout,,,,107196.19999998808,107194.044,105394.008,105408,105410.675,107210.711,,white
,Stimulus,canvas.Screen,3_38_0_1,2022-03-01T09:43:50.203Z,,,,1,VA,100.00200000000768,timeout,,,,107295.5,107294.046,107194.044,107196.39999997616,107210.711,107310.713,,white
,Reaction,canvas.Screen,3_38_0_2,2022-03-01T09:43:50.425Z,,,,1,VA,201.68699997615477,response,,stim_detected,keydown(Space),107517.09999996424,107512.39999997616,107294.046,107295.69999998808,107310.713,107527.384,,white
,Trial,flow.Sequence,3_38_0,2022-03-01T09:43:50.425Z,,,,1,VA,2101.7249999761552,completion,,,,107517.5,107512.39999997616,105394.008,105407.80000001192,105410.675,107527.384,,white
,Frame,canvas.Frame,3_38,2022-03-01T09:43:50.425Z,,,,1,VA,2106.9249999642343,,,,,107517.69999998808,107517.59999996424,105394.008,105407,105410.675,107527.384,,white
,Fixation,canvas.Screen,3_39_0_0,2022-03-01T09:43:52.102Z,,,,0,V,1683.3669999999984,timeout,,,,109195,109194.084,107510.717,107518.69999998808,107527.384,109210.751,,white
,Stimulus,canvas.Screen,3_39_0_1,2022-03-01T09:43:52.204Z,,,,0,V,100.00199999999313,timeout,,,,109296.5,109294.086,109194.084,109195.19999998808,109210.751,109310.753,,white
,Reaction,canvas.Screen,3_39_0_2,2022-03-01T09:43:52.433Z,,,,0,V,210.54700001192396,response,,stim_detected,keydown(Space),109526,109521.30000001192,109294.086,109296.69999998808,109310.753,109527.424,,white
,Trial,flow.Sequence,3_39_0,2022-03-01T09:43:52.434Z,,,,0,V,1993.9160000119155,completion,,,,109526.39999997616,109521.30000001192,107510.717,107518.69999998808,107527.384,109527.424,,white
,Frame,canvas.Frame,3_39,2022-03-01T09:43:52.434Z,,,,0,V,1999.0159999761527,,,,,109526.59999996424,109526.39999997616,107510.717,107517.80000001192,107527.384,109527.424,,white
,Fixation,canvas.Screen,3_40_0_0,2022-03-01T09:43:54.870Z,,,,0,V,2450.048999999999,timeout,,,,111963,111960.806,109510.757,109527.59999996424,109527.424,111977.473,,white
,Stimulus,canvas.Screen,3_40_0_1,2022-03-01T09:43:54.969Z,,,,0,V,100.00200000000768,timeout,,,,112061.59999996424,112060.808,111960.806,111963.19999998808,111977.473,112077.475,,white
,Reaction,canvas.Screen,3_40_0_2,2022-03-01T09:43:55.178Z,,,,0,V,188.72499998807325,response,,stim_detected,keydown(Space),112270.80000001192,112266.19999998808,112060.808,112061.80000001192,112077.475,112277.479,,white
,Trial,flow.Sequence,3_40_0,2022-03-01T09:43:55.179Z,,,,0,V,2738.77599998808,completion,,,,112271.09999996424,112266.19999998808,109510.757,109527.5,109527.424,112277.479,,white
,Frame,canvas.Frame,3_40,2022-03-01T09:43:55.179Z,,,,0,V,2743.77599998808,,,,,112271.30000001192,112271.19999998808,109510.757,109526.69999998808,109527.424,112277.479,,white
,Fixation,canvas.Screen,3_41_0_0,2022-03-01T09:43:57.370Z,,,,1,A,2200.0439999999944,timeout,,,,114462.39999997616,114460.856,112260.812,112272.39999997616,112277.479,114477.523,,grey
,Stimulus,canvas.Screen,3_41_0_1,2022-03-01T09:43:57.471Z,,,,1,A,100.00199999999313,timeout,,,,114563.09999996424,114560.858,114460.856,114462.69999998808,114477.523,114577.525,,grey
,Reaction,canvas.Screen,3_41_0_2,2022-03-01T09:43:57.766Z,,,,1,A,276.57499996424303,response,,stim_detected,keydown(Space),114858.80000001192,114854.09999996424,114560.858,114563.30000001192,114577.525,114860.864,,grey
,Trial,flow.Sequence,3_41_0,2022-03-01T09:43:57.767Z,,,,1,A,2576.6209999642306,completion,,,,114859.09999996424,114854.09999996424,112260.812,112272.30000001192,112277.479,114860.864,,grey
,Frame,canvas.Frame,3_41,2022-03-01T09:43:57.767Z,,,,1,A,2581.7209999880724,,,,,114859.39999997616,114859.19999998808,112260.812,112271.39999997616,112277.479,114860.864,,grey
,Fixation,canvas.Screen,3_42_0_0,2022-03-01T09:43:59.638Z,,,,1,VA,1883.3709999999992,timeout,,,,116730.19999998808,116727.568,114844.197,114860.39999997616,114860.864,116744.235,,white
,Stimulus,canvas.Screen,3_42_0_1,2022-03-01T09:43:59.737Z,,,,1,VA,100.00199999999313,timeout,,,,116829.69999998808,116827.57,116727.568,116730.39999997616,116744.235,116844.237,,white
,Reaction,canvas.Screen,3_42_0_2,2022-03-01T09:43:59.926Z,,,,1,VA,169.66299997616443,response,,stim_detected,keydown(Space),117018.5,117013.89999997616,116827.57,116829.89999997616,116844.237,117027.574,,white
,Trial,flow.Sequence,3_42_0,2022-03-01T09:43:59.927Z,,,,1,VA,2153.0359999761567,completion,,,,117018.89999997616,117013.89999997616,114844.197,114860.30000001192,114860.864,117027.574,,white
,Frame,canvas.Frame,3_42,2022-03-01T09:43:59.927Z,,,,1,VA,2158.0359999761567,,,,,117019,117018.89999997616,114844.197,114859.5,114860.864,117027.574,,white
,Fixation,canvas.Screen,3_43_0_0,2022-03-01T09:44:01.788Z,,,,0,V,1866.7040000000125,timeout,,,,118880.39999997616,118877.611,117010.907,117020.09999996424,117027.574,118894.278,,white
,Stimulus,canvas.Screen,3_43_0_1,2022-03-01T09:44:01.888Z,,,,0,V,100.00199999999313,timeout,,,,118979.89999997616,118977.613,118877.611,118880.69999998808,118894.278,118994.28,,white
,Reaction,canvas.Screen,3_43_0_2,2022-03-01T09:44:02.137Z,,,,0,V,230.31999996423838,response,,stim_detected,keydown(Space),119229,119224.59999996424,118977.613,118980.19999998808,118994.28,119244.285,,white
,Trial,flow.Sequence,3_43_0,2022-03-01T09:44:02.137Z,,,,0,V,2197.025999964244,completion,,,,119229.30000001192,119224.59999996424,117010.907,117020.09999996424,117027.574,119244.285,,white
,Frame,canvas.Frame,3_43,2022-03-01T09:44:02.138Z,,,,0,V,2201.7260000119277,,,,,119229.80000001192,119229.30000001192,117010.907,117019.19999998808,117027.574,119244.285,,white
,Fixation,canvas.Screen,3_44_0_0,2022-03-01T09:44:03.904Z,,,,1,VA,1766.7019999999902,timeout,,,,120996.09999996424,120994.32,119227.618,119231,119244.285,121010.987,,white
,Stimulus,canvas.Screen,3_44_0_1,2022-03-01T09:44:04.004Z,,,,1,VA,100.00200000000768,timeout,,,,121096.59999996424,121094.322,120994.32,120996.30000001192,121010.987,121110.989,,white
,Reaction,canvas.Screen,3_44_0_2,2022-03-01T09:44:04.228Z,,,,1,VA,203.61099996423582,response,,stim_detected,keydown(Space),121320,121314.59999996424,121094.322,121096.89999997616,121110.989,121327.66,,white
,Trial,flow.Sequence,3_44_0,2022-03-01T09:44:04.228Z,,,,1,VA,2070.3149999642337,completion,,,,121320.30000001192,121314.59999996424,119227.618,119230.89999997616,119244.285,121327.66,,white
,Frame,canvas.Frame,3_44,2022-03-01T09:44:04.228Z,,,,1,VA,2076.1149999761546,,,,,121320.5,121320.39999997616,119227.618,119230,119244.285,121327.66,,white
,Fixation,canvas.Screen,3_45_0_0,2022-03-01T09:44:06.038Z,,,,1,A,1816.702999999994,timeout,,,,123130.59999996424,123127.696,121310.993,121321.5,121327.66,123144.363,,grey
,Stimulus,canvas.Screen,3_45_0_1,2022-03-01T09:44:06.138Z,,,,1,A,100.00200000000768,timeout,,,,123230.19999998808,123227.698,123127.696,123130.89999997616,123144.363,123244.365,,grey
,Reaction,canvas.Screen,3_45_0_2,2022-03-01T09:44:06.387Z,,,,1,A,230.23499996423197,response,,stim_detected,keydown(Space),123479.30000001192,123474.59999996424,123227.698,123230.30000001192,123244.365,123494.37,,grey
,Trial,flow.Sequence,3_45_0,2022-03-01T09:44:06.388Z,,,,1,A,2146.9399999642337,completion,,,,123479.80000001192,123474.59999996424,121310.993,121321.39999997616,121327.66,123494.37,,grey
,Frame,canvas.Frame,3_45,2022-03-01T09:44:06.388Z,,,,1,A,2152.1400000119174,,,,,123480,123479.80000001192,121310.993,121320.59999996424,121327.66,123494.37,,grey
,Fixation,canvas.Screen,3_46_0_0,2022-03-01T09:44:08.355Z,,,,0,V,1966.7060000000056,timeout,,,,125446.80000001192,125444.409,123477.703,123481.19999998808,123494.37,125461.076,,white
,Stimulus,canvas.Screen,3_46_0_1,2022-03-01T09:44:08.454Z,,,,0,V,100.00199999999313,timeout,,,,125546.19999998808,125544.411,125444.409,125447.09999996424,125461.076,125561.078,,white
,Reaction,canvas.Screen,3_46_0_2,2022-03-01T09:44:08.667Z,,,,0,V,193.42200000000594,response,,stim_detected,keydown(Space),125759,125754.5,125544.411,125546.30000001192,125561.078,125761.082,,white
,Trial,flow.Sequence,3_46_0,2022-03-01T09:44:08.667Z,,,,0,V,2260.1300000000047,completion,,,,125759.39999997616,125754.5,123477.703,123481.09999996424,123494.37,125761.082,,white
,Frame,canvas.Frame,3_46,2022-03-01T09:44:08.668Z,,,,0,V,2265.1300000000047,,,,,125759.69999998808,125759.5,123477.703,123480.09999996424,123494.37,125761.082,,white
,Fixation,canvas.Screen,3_47_0_0,2022-03-01T09:44:10.254Z,,,,1,VA,1600.0320000000065,timeout,,,,127345.80000001192,127344.447,125744.415,125760.80000001192,125761.082,127361.114,,white
,Stimulus,canvas.Screen,3_47_0_1,2022-03-01T09:44:10.353Z,,,,1,VA,100.00199999999313,timeout,,,,127445.39999997616,127444.449,127344.447,127346,127361.114,127461.116,,white
,Reaction,canvas.Screen,3_47_0_2,2022-03-01T09:44:10.539Z,,,,1,VA,165.1840000119264,response,,stim_detected,keydown(Space),127630.89999997616,127626.30000001192,127444.449,127445.59999996424,127461.116,127644.453,,white
,Trial,flow.Sequence,3_47_0,2022-03-01T09:44:10.539Z,,,,1,VA,1865.218000011926,completion,,,,127631.19999998808,127626.30000001192,125744.415,125760.80000001192,125761.082,127644.453,,white
,Frame,canvas.Frame,3_47,2022-03-01T09:44:10.539Z,,,,1,VA,1870.218000011926,,,,,127631.39999997616,127631.30000001192,125744.415,125759.80000001192,125761.082,127644.453,,white
,Fixation,canvas.Screen,3_48_0_0,2022-03-01T09:44:12.538Z,,,,0,V,2000.0400000000081,timeout,,,,129629.80000001192,129627.826,127627.786,127632.80000001192,127644.453,129644.493,,white
,Stimulus,canvas.Screen,3_48_0_1,2022-03-01T09:44:12.639Z,,,,0,V,100.00199999999313,timeout,,,,129730.69999998808,129727.828,129627.826,129630,129644.493,129744.495,,white
,Reaction,canvas.Screen,3_48_0_2,2022-03-01T09:44:12.862Z,,,,0,V,204.70499998808373,response,,stim_detected,keydown(Space),129953.69999998808,129949.19999998808,129727.828,129731,129744.495,129994.5,,white
,Trial,flow.Sequence,3_48_0,2022-03-01T09:44:12.862Z,,,,0,V,2304.746999988085,completion,,,,129953.89999997616,129949.19999998808,127627.786,127632.59999996424,127644.453,129994.5,,white
,Frame,canvas.Frame,3_48,2022-03-01T09:44:12.862Z,,,,0,V,2309.547000000006,,,,,129954.09999996424,129954,127627.786,127631.5,127644.453,129994.5,,white
,Fixation,canvas.Screen,3_49_0_0,2022-03-01T09:44:14.671Z,,,,1,A,1783.369000000006,timeout,,,,131763.19999998808,131761.202,129944.499,129955.09999996424,129994.5,131777.869,,grey
,Stimulus,canvas.Screen,3_49_0_1,2022-03-01T09:44:14.771Z,,,,1,A,100.00200000000768,timeout,,,,131863,131861.204,131761.202,131763.39999997616,131777.869,131877.871,,grey
,Reaction,canvas.Screen,3_49_0_2,2022-03-01T09:44:15.237Z,,,,1,A,446.2289999642235,response,,stim_detected,keydown(Space),132328.80000001192,132324.09999996424,131861.204,131863.19999998808,131877.871,132344.547,,grey
,Trial,flow.Sequence,3_49_0,2022-03-01T09:44:15.237Z,,,,1,A,2329.599999964237,completion,,,,132329.09999996424,132324.09999996424,129944.499,129955.09999996424,129994.5,132344.547,,grey
,Frame,canvas.Frame,3_49,2022-03-01T09:44:15.237Z,,,,1,A,2334.699999988079,,,,,132329.19999998808,132329.19999998808,129944.499,129954.30000001192,129994.5,132344.547,,grey
,Fixation,canvas.Screen,3_50_0_0,2022-03-01T09:44:17.055Z,,,,1,VA,1816.7030000000086,timeout,,,,134147.30000001192,134144.583,132327.88,132330.30000001192,132344.547,134161.25,,white
,Stimulus,canvas.Screen,3_50_0_1,2022-03-01T09:44:17.155Z,,,,1,VA,100.00200000000768,timeout,,,,134246.89999997616,134244.585,134144.583,134147.5,134161.25,134261.252,,white
,Reaction,canvas.Screen,3_50_0_2,2022-03-01T09:44:17.369Z,,,,1,VA,195.54800001191325,response,,stim_detected,keydown(Space),134461.09999996424,134456.80000001192,134244.585,134247.19999998808,134261.252,134477.923,,white
,Trial,flow.Sequence,3_50_0,2022-03-01T09:44:17.370Z,,,,1,VA,2112.2530000119295,completion,,,,134461.30000001192,134456.80000001192,132327.88,132330.19999998808,132344.547,134477.923,,white
,Frame,canvas.Frame,3_50,2022-03-01T09:44:17.370Z,,,,1,VA,2116.8529999761668,,,,,134461.5,134461.39999997616,132327.88,132329.39999997616,132344.547,134477.923,,white
,Fixation,canvas.Screen,3_51_0_0,2022-03-01T09:44:19.306Z,,,,1,A,1933.372000000003,timeout,,,,136397.30000001192,136394.628,134461.256,134462.59999996424,134477.923,136411.295,,grey
,Stimulus,canvas.Screen,3_51_0_1,2022-03-01T09:44:19.404Z,,,,1,A,100.00199999997858,timeout,,,,136495.39999997616,136494.63,136394.628,136397.39999997616,136411.295,136511.297,,grey
,Reaction,canvas.Screen,3_51_0_2,2022-03-01T09:44:19.621Z,,,,1,A,196.50300001192954,response,,stim_detected,keydown(Space),136712.39999997616,136707.80000001192,136494.63,136495.59999996424,136511.297,136727.968,,grey
,Trial,flow.Sequence,3_51_0,2022-03-01T09:44:19.621Z,,,,1,A,2229.877000011911,completion,,,,136712.69999998808,136707.80000001192,134461.256,134462.5,134477.923,136727.968,,grey
,Frame,canvas.Frame,3_51,2022-03-01T09:44:19.621Z,,,,1,A,2234.877000011911,,,,,136712.89999997616,136712.80000001192,134461.256,134461.59999996424,134477.923,136727.968,,grey
,Fixation,canvas.Screen,3_52_0_0,2022-03-01T09:44:21.641Z,,,,0,V,2016.7069999999949,timeout,,,,138732.5,138728.008,136711.301,136713.89999997616,136727.968,138744.675,,white
,Stimulus,canvas.Screen,3_52_0_1,2022-03-01T09:44:21.739Z,,,,0,V,100.00200000000768,timeout,,,,138830.30000001192,138828.01,138728.008,138732.59999996424,138744.675,138844.677,,white
,Reaction,canvas.Screen,3_52_0_2,2022-03-01T09:44:21.989Z,,,,0,V,232.02299998808303,response,,stim_detected,keydown(Space),139080.69999998808,139076.69999998808,138828.01,138830.5,138844.677,139094.682,,white
,Trial,flow.Sequence,3_52_0,2022-03-01T09:44:21.989Z,,,,0,V,2348.7319999880856,completion,,,,139081,139076.69999998808,136711.301,136713.89999997616,136727.968,139094.682,,white
,Frame,canvas.Frame,3_52,2022-03-01T09:44:21.989Z,,,,0,V,2353.0320000000065,,,,,139081.09999996424,139081,136711.301,136713,136727.968,139094.682,,white
,Fixation,canvas.Screen,3_53_0_0,2022-03-01T09:44:24.389Z,,,,1,A,2400.04800000001,timeout,,,,141480.5,141478.063,139078.015,139081.89999997616,139094.682,141494.73,,grey
,Stimulus,canvas.Screen,3_53_0_1,2022-03-01T09:44:24.489Z,,,,1,A,100.00199999997858,timeout,,,,141580.5,141578.065,141478.063,141480.80000001192,141494.73,141594.732,,grey
,Reaction,canvas.Screen,3_53_0_2,2022-03-01T09:44:24.884Z,,,,1,A,376.86799996424816,response,,stim_detected,keydown(Space),141976,141971.59999996424,141578.065,141580.69999998808,141594.732,141978.073,,grey
,Trial,flow.Sequence,3_53_0,2022-03-01T09:44:24.885Z,,,,1,A,2876.9179999642365,completion,,,,141976.19999998808,141971.59999996424,139078.015,139081.80000001192,139094.682,141978.073,,grey
,Frame,canvas.Frame,3_53,2022-03-01T09:44:24.885Z,,,,1,A,2881.6180000119202,,,,,141976.39999997616,141976.30000001192,139078.015,139081.09999996424,139094.682,141978.073,,grey
,Fixation,canvas.Screen,3_54_0_0,2022-03-01T09:44:27.255Z,,,,0,V,2383.380999999994,timeout,,,,144346.89999997616,144344.787,141961.406,141977.5,141978.073,144361.454,,white
,Stimulus,canvas.Screen,3_54_0_1,2022-03-01T09:44:27.356Z,,,,0,V,100.00200000000768,timeout,,,,144447.5,144444.789,144344.787,144347.09999996424,144361.454,144461.456,,white
,Reaction,canvas.Screen,3_54_0_2,2022-03-01T09:44:27.582Z,,,,0,V,206.94399997615255,response,,stim_detected,keydown(Space),144673.19999998808,144668.39999997616,144444.789,144447.69999998808,144461.456,144678.127,,white
,Trial,flow.Sequence,3_54_0,2022-03-01T09:44:27.582Z,,,,0,V,2690.326999976154,completion,,,,144673.59999996424,144668.39999997616,141961.406,141977.39999997616,141978.073,144678.127,,white
,Frame,canvas.Frame,3_54,2022-03-01T09:44:27.582Z,,,,0,V,2695.626999988075,,,,,144673.80000001192,144673.69999998808,141961.406,141976.5,141978.073,144678.127,,white
,Fixation,canvas.Screen,3_55_0_0,2022-03-01T09:44:29.522Z,,,,1,A,1950.0389999999898,timeout,,,,146613.09999996424,146611.499,144661.46,144674.80000001192,144678.127,146628.166,,grey
,Stimulus,canvas.Screen,3_55_0_1,2022-03-01T09:44:29.623Z,,,,1,A,100.00200000000768,timeout,,,,146714.09999996424,146711.501,146611.499,146613.39999997616,146628.166,146728.168,,grey
,Reaction,canvas.Screen,3_55_0_2,2022-03-01T09:44:29.928Z,,,,1,A,286.1320000119158,response,,stim_detected,keydown(Space),147019.19999998808,147014.30000001192,146711.501,146714.30000001192,146728.168,147028.174,,grey
,Trial,flow.Sequence,3_55_0,2022-03-01T09:44:29.928Z,,,,1,A,2336.1730000119132,completion,,,,147019.5,147014.30000001192,144661.46,144674.69999998808,144678.127,147028.174,,grey
,Frame,canvas.Frame,3_55,2022-03-01T09:44:29.928Z,,,,1,A,2341.4729999642295,,,,,147019.69999998808,147019.59999996424,144661.46,144673.89999997616,144678.127,147028.174,,grey
,Fixation,canvas.Screen,3_56_0_0,2022-03-01T09:44:32.155Z,,,,1,VA,2250.045000000013,timeout,,,,149246.59999996424,149244.885,147011.507,147020.80000001192,147028.174,149278.219,,white
,Stimulus,canvas.Screen,3_56_0_1,2022-03-01T09:44:32.272Z,,,,1,VA,100.00199999997858,timeout,,,,149363,149361.554,149244.885,149246.69999998808,149278.219,149378.221,,white
,Reaction,canvas.Screen,3_56_0_2,2022-03-01T09:44:32.489Z,,,,1,VA,198.77900000000955,response,,stim_detected,keydown(Space),149580.80000001192,149577,149361.554,149363.39999997616,149378.221,149594.892,,white
,Trial,flow.Sequence,3_56_0,2022-03-01T09:44:32.490Z,,,,1,VA,2548.826000000001,completion,,,,149581.09999996424,149577,147011.507,147020.69999998808,147028.174,149594.892,,white
,Frame,canvas.Frame,3_56,2022-03-01T09:44:32.490Z,,,,1,VA,2552.925999964238,,,,,149581.09999996424,149581.09999996424,147011.507,147019.80000001192,147028.174,149594.892,,white
,Fixation,canvas.Screen,3_57_0_0,2022-03-01T09:44:34.306Z,,,,1,A,1816.7030000000086,timeout,,,,151397.5,151394.928,149578.225,149581.89999997616,149594.892,151411.595,,grey
,Stimulus,canvas.Screen,3_57_0_1,2022-03-01T09:44:34.406Z,,,,1,A,100.00200000000768,timeout,,,,151497.59999996424,151494.93,151394.928,151397.69999998808,151411.595,151511.597,,grey
,Reaction,canvas.Screen,3_57_0_2,2022-03-01T09:44:34.789Z,,,,1,A,364.50299996422837,response,,stim_detected,keydown(Space),151880.59999996424,151876.09999996424,151494.93,151497.69999998808,151511.597,151894.938,,grey
,Trial,flow.Sequence,3_57_0,2022-03-01T09:44:34.790Z,,,,1,A,2281.2079999642447,completion,,,,151880.80000001192,151876.09999996424,149578.225,149581.80000001192,149594.892,151894.938,,grey
,Frame,canvas.Frame,3_57,2022-03-01T09:44:34.790Z,,,,1,A,2286.0079999761656,,,,,151881.09999996424,151880.89999997616,149578.225,149581.19999998808,149594.892,151894.938,,grey
,Fixation,canvas.Screen,3_58_0_0,2022-03-01T09:44:36.306Z,,,,1,VA,1516.6970000000147,timeout,,,,153397.59999996424,153394.968,151878.271,151882.09999996424,151894.938,153411.635,,white
,Stimulus,canvas.Screen,3_58_0_1,2022-03-01T09:44:36.406Z,,,,1,VA,100.00199999997858,timeout,,,,153497.30000001192,153494.97,153394.968,153397.89999997616,153411.635,153511.637,,white
,Reaction,canvas.Screen,3_58_0_2,2022-03-01T09:44:36.646Z,,,,1,VA,221.3630000000121,response,,stim_detected,keydown(Space),153737.39999997616,153733,153494.97,153497.5,153511.637,153744.975,,white
,Trial,flow.Sequence,3_58_0,2022-03-01T09:44:36.646Z,,,,1,VA,1838.0620000000054,completion,,,,153737.69999998808,153733,151878.271,151882,151894.938,153744.975,,white
,Frame,canvas.Frame,3_58,2022-03-01T09:44:36.647Z,,,,1,VA,1842.9619999761635,,,,,153738,153737.89999997616,151878.271,151881.09999996424,151894.938,153744.975,,white
,Fixation,canvas.Screen,3_59_0_0,2022-03-01T09:44:38.706Z,,,,0,V,2066.707999999984,timeout,,,,155796.89999997616,155795.016,153728.308,153739,153744.975,155811.683,,white
,Stimulus,canvas.Screen,3_59_0_1,2022-03-01T09:44:38.807Z,,,,0,V,100.00200000000768,timeout,,,,155897.89999997616,155895.018,155795.016,155797.09999996424,155811.683,155911.685,,white
,Reaction,canvas.Screen,3_59_0_2,2022-03-01T09:44:39.067Z,,,,0,V,242.11500001192326,response,,stim_detected,keydown(Space),156158.59999996424,156153.80000001192,155895.018,155898.09999996424,155911.685,156161.69,,white
,Trial,flow.Sequence,3_59_0,2022-03-01T09:44:39.068Z,,,,0,V,2408.825000011915,completion,,,,156158.89999997616,156153.80000001192,153728.308,153738.89999997616,153744.975,156161.69,,white
,Frame,canvas.Frame,3_59,2022-03-01T09:44:39.068Z,,,,0,V,2413.9249999761523,,,,,156159.09999996424,156158.89999997616,153728.308,153738,153744.975,156161.69,,white
,Fixation,canvas.Screen,3_60_0_0,2022-03-01T09:44:40.640Z,,,,0,V,1583.3649999999907,timeout,,,,157730.69999998808,157728.388,156145.023,156160.09999996424,156161.69,157745.055,,white
,Stimulus,canvas.Screen,3_60_0_1,2022-03-01T09:44:40.740Z,,,,0,V,100.00200000000768,timeout,,,,157831.19999998808,157828.39,157728.388,157730.89999997616,157745.055,157845.057,,white
,Reaction,canvas.Screen,3_60_0_2,2022-03-01T09:44:40.981Z,,,,0,V,222.64299998807837,response,,stim_detected,keydown(Space),158072.30000001192,158067.69999998808,157828.39,157831.39999997616,157845.057,158078.395,,white
,Trial,flow.Sequence,3_60_0,2022-03-01T09:44:40.981Z,,,,0,V,1906.0099999880767,completion,,,,158072.5,158067.69999998808,156145.023,156160.09999996424,156161.69,158078.395,,white
,Frame,canvas.Frame,3_60,2022-03-01T09:44:40.982Z,,,,0,V,1910.9099999642349,,,,,158072.69999998808,158072.59999996424,156145.023,156159.19999998808,156161.69,158078.395,,white
,Fixation,canvas.Screen,3_61_0_0,2022-03-01T09:44:43.173Z,,,,1,VA,2200.0440000000235,timeout,,,,160264,160261.772,158061.728,158073.59999996424,158078.395,160278.439,,white
,Stimulus,canvas.Screen,3_61_0_1,2022-03-01T09:44:43.273Z,,,,1,VA,100.00199999997858,timeout,,,,160364.09999996424,160361.774,160261.772,160264.19999998808,160278.439,160378.441,,white
,Reaction,canvas.Screen,3_61_0_2,2022-03-01T09:44:43.467Z,,,,1,VA,175.05900000000838,response,,stim_detected,keydown(Space),160558.39999997616,160553.5,160361.774,160364.30000001192,160378.441,160561.778,,white
,Trial,flow.Sequence,3_61_0,2022-03-01T09:44:43.468Z,,,,1,VA,2475.1050000000105,completion,,,,160558.69999998808,160553.5,158061.728,158073.59999996424,158078.395,160561.778,,white
,Frame,canvas.Frame,3_61,2022-03-01T09:44:43.468Z,,,,1,VA,2480.3049999880895,,,,,160558.89999997616,160558.69999998808,158061.728,158072.80000001192,158078.395,160561.778,,white
,Fixation,canvas.Screen,3_62_0_0,2022-03-01T09:44:45.490Z,,,,1,VA,2033.3740000000107,timeout,,,,162581.09999996424,162578.485,160545.111,160559.80000001192,160561.778,162595.152,,white
,Stimulus,canvas.Screen,3_62_0_1,2022-03-01T09:44:45.590Z,,,,1,VA,100.00200000000768,timeout,,,,162680.89999997616,162678.487,162578.485,162581.19999998808,162595.152,162695.154,,white
,Reaction,canvas.Screen,3_62_0_2,2022-03-01T09:44:45.785Z,,,,1,VA,176.2459999761486,response,,stim_detected,keydown(Space),162875.69999998808,162871.39999997616,162678.487,162681,162695.154,162878.491,,white
,Trial,flow.Sequence,3_62_0,2022-03-01T09:44:45.785Z,,,,1,VA,2309.621999976167,completion,,,,162876.09999996424,162871.39999997616,160545.111,160559.80000001192,160561.778,162878.491,,white
,Frame,canvas.Frame,3_62,2022-03-01T09:44:45.785Z,,,,1,VA,2314.321999964246,,,,,162876.19999998808,162876.09999996424,160545.111,160558.89999997616,160561.778,162878.491,,white
,Fixation,canvas.Screen,3_63_0_0,2022-03-01T09:44:48.142Z,,,,1,A,2350.0469999999914,timeout,,,,165233,165211.871,162861.824,162877.19999998808,162878.491,165228.538,,grey
,Stimulus,canvas.Screen,3_63_0_1,2022-03-01T09:44:48.223Z,,,,1,A,100.00200000000768,timeout,,,,165314.19999998808,165311.873,165211.871,165233.39999997616,165228.538,165328.54,,grey
,Reaction,canvas.Screen,3_63_0_2,2022-03-01T09:44:48.497Z,,,,1,A,254.65999998807092,response,,stim_detected,keydown(Space),165587.5,165583.19999998808,165311.873,165314.30000001192,165328.54,165595.212,,grey
,Trial,flow.Sequence,3_63_0,2022-03-01T09:44:48.497Z,,,,1,A,2704.70899998807,completion,,,,165587.89999997616,165583.19999998808,162861.824,162877.19999998808,162878.491,165595.212,,grey
,Frame,canvas.Frame,3_63,2022-03-01T09:44:48.497Z,,,,1,A,2709.508999999991,,,,,165588.19999998808,165588,162861.824,162876.39999997616,162878.491,165595.212,,grey
,Fixation,canvas.Screen,3_64_0_0,2022-03-01T09:44:50.257Z,,,,0,V,1766.7019999999902,timeout,,,,167347.5,167345.247,165578.545,165589.30000001192,165595.212,167361.914,,white
,Stimulus,canvas.Screen,3_64_0_1,2022-03-01T09:44:50.356Z,,,,0,V,100.00200000000768,timeout,,,,167446.59999996424,167445.249,167345.247,167347.69999998808,167361.914,167461.916,,white
,Reaction,canvas.Screen,3_64_0_2,2022-03-01T09:44:50.629Z,,,,0,V,253.28399998808163,response,,stim_detected,keydown(Space),167720.09999996424,167715.19999998808,167445.249,167446.80000001192,167461.916,167728.588,,white
,Trial,flow.Sequence,3_64_0,2022-03-01T09:44:50.630Z,,,,0,V,2119.9879999880795,completion,,,,167720.5,167715.19999998808,165578.545,165589.30000001192,165595.212,167728.588,,white
,Frame,canvas.Frame,3_64,2022-03-01T09:44:50.630Z,,,,0,V,2125.2880000000005,,,,,167720.69999998808,167720.5,165578.545,165588.39999997616,165595.212,167728.588,,white
,Fixation,canvas.Screen,3_65_0_0,2022-03-01T09:44:52.957Z,,,,1,VA,2350.0470000000205,timeout,,,,170047.19999998808,170045.301,167711.921,167721.69999998808,167728.588,170078.635,,white
,Stimulus,canvas.Screen,3_65_0_1,2022-03-01T09:44:53.073Z,,,,1,VA,100.00199999997858,timeout,,,,170163.69999998808,170161.97,170045.301,170047.5,170078.635,170178.637,,white
,Reaction,canvas.Screen,3_65_0_2,2022-03-01T09:44:53.328Z,,,,1,VA,235.3630000000121,response,,stim_detected,keydown(Space),170418.69999998808,170414,170161.97,170164,170178.637,170428.642,,white
,Trial,flow.Sequence,3_65_0,2022-03-01T09:44:53.328Z,,,,1,VA,2685.412000000011,completion,,,,170419,170414,167711.921,167721.69999998808,167728.588,170428.642,,white
,Frame,canvas.Frame,3_65,2022-03-01T09:44:53.329Z,,,,1,VA,2690.5119999642484,,,,,170419.19999998808,170419.09999996424,167711.921,167720.80000001192,167728.588,170428.642,,white
,Fixation,canvas.Screen,3_66_0_0,2022-03-01T09:44:55.174Z,,,,1,A,1850.0370000000112,timeout,,,,172264.39999997616,172262.012,170411.975,170420.30000001192,170428.642,172278.679,,grey
,Stimulus,canvas.Screen,3_66_0_1,2022-03-01T09:44:55.273Z,,,,1,A,100.00200000000768,timeout,,,,172363.59999996424,172362.014,172262.012,172264.59999996424,172278.679,172378.681,,grey
,Reaction,canvas.Screen,3_66_0_2,2022-03-01T09:44:55.618Z,,,,1,A,325.21899997614673,response,,stim_detected,keydown(Space),172708.69999998808,172703.89999997616,172362.014,172363.80000001192,172378.681,172712.021,,grey
,Trial,flow.Sequence,3_66_0,2022-03-01T09:44:55.618Z,,,,1,A,2275.2579999761656,completion,,,,172709.09999996424,172703.89999997616,170411.975,170420.30000001192,170428.642,172712.021,,grey
,Frame,canvas.Frame,3_66,2022-03-01T09:44:55.619Z,,,,1,A,2280.4579999642447,,,,,172709.19999998808,172709.09999996424,170411.975,170419.39999997616,170428.642,172712.021,,grey
,Fixation,canvas.Screen,3_67_0_0,2022-03-01T09:44:57.973Z,,,,0,V,2366.713999999978,timeout,,,,175063.89999997616,175062.068,172695.354,172710.39999997616,172712.021,175078.735,,white
,Stimulus,canvas.Screen,3_67_0_1,2022-03-01T09:44:58.074Z,,,,0,V,100.00200000000768,timeout,,,,175164.09999996424,175162.07,175062.068,175064.19999998808,175078.735,175178.737,,white
,Reaction,canvas.Screen,3_67_0_2,2022-03-01T09:44:58.353Z,,,,0,V,260.0630000119272,response,,stim_detected,keydown(Space),175443.39999997616,175438.80000001192,175162.07,175164.30000001192,175178.737,175445.409,,white
,Trial,flow.Sequence,3_67_0,2022-03-01T09:44:58.353Z,,,,0,V,2726.779000011913,completion,,,,175443.69999998808,175438.80000001192,172695.354,172710.30000001192,172712.021,175445.409,,white
,Frame,canvas.Frame,3_67,2022-03-01T09:44:58.353Z,,,,0,V,2731.678999988071,,,,,175443.80000001192,175443.69999998808,172695.354,172709.39999997616,172712.021,175445.409,,white
,Fixation,canvas.Screen,3_68_0_0,2022-03-01T09:45:00.374Z,,,,0,V,2033.3739999999816,timeout,,,,177464.80000001192,177462.116,175428.742,175444.80000001192,175445.409,177478.783,,white
,Stimulus,canvas.Screen,3_68_0_1,2022-03-01T09:45:00.474Z,,,,0,V,100.00200000000768,timeout,,,,177564.30000001192,177562.118,177462.116,177464.89999997616,177478.783,177578.785,,white
,Reaction,canvas.Screen,3_68_0_2,2022-03-01T09:45:00.830Z,,,,0,V,336.8149999642337,response,,stim_detected,keydown(Space),177920.39999997616,177915.59999996424,177562.118,177564.5,177578.785,177928.792,,white
,Trial,flow.Sequence,3_68_0,2022-03-01T09:45:00.830Z,,,,0,V,2470.190999964223,completion,,,,177920.69999998808,177915.59999996424,175428.742,175444.80000001192,175445.409,177928.792,,white
,Frame,canvas.Frame,3_68,2022-03-01T09:45:00.830Z,,,,0,V,2475.3910000119067,,,,,177920.89999997616,177920.80000001192,175428.742,175444,175445.409,177928.792,,white
,Fixation,canvas.Screen,3_69_0_0,2022-03-01T09:45:02.924Z,,,,0,V,2100.042000000016,timeout,,,,180014.5,180012.167,177912.125,177922.09999996424,177928.792,180028.834,,white
,Stimulus,canvas.Screen,3_69_0_1,2022-03-01T09:45:03.024Z,,,,0,V,100.00200000000768,timeout,,,,180114.09999996424,180112.169,180012.167,180014.69999998808,180028.834,180128.836,,white
,Reaction,canvas.Screen,3_69_0_2,2022-03-01T09:45:03.452Z,,,,0,V,408.66399999998976,response,,stim_detected,keydown(Space),180542.19999998808,180537.5,180112.169,180114.30000001192,180128.836,180545.511,,white
,Trial,flow.Sequence,3_69_0,2022-03-01T09:45:03.452Z,,,,0,V,2608.7080000000133,completion,,,,180542.59999996424,180537.5,177912.125,177922,177928.792,180545.511,,white
,Frame,canvas.Frame,3_69,2022-03-01T09:45:03.452Z,,,,0,V,2613.9079999880923,,,,,180542.80000001192,180542.69999998808,177912.125,177921.09999996424,177928.792,180545.511,,white
,Fixation,canvas.Screen,3_70_0_0,2022-03-01T09:45:05.757Z,,,,0,V,2316.712999999989,timeout,,,,182847.5,182845.557,180528.844,180543.80000001192,180545.511,182862.224,,white
,Stimulus,canvas.Screen,3_70_0_1,2022-03-01T09:45:05.858Z,,,,0,V,100.00200000000768,timeout,,,,182948.30000001192,182945.559,182845.557,182847.69999998808,182862.224,182962.226,,white
,Reaction,canvas.Screen,3_70_0_2,2022-03-01T09:45:06.097Z,,,,0,V,221.17399997616303,response,,stim_detected,keydown(Space),183187.59999996424,183183.39999997616,182945.559,182948.5,182962.226,183195.564,,white
,Trial,flow.Sequence,3_70_0,2022-03-01T09:45:06.098Z,,,,0,V,2637.8889999761595,completion,,,,183187.89999997616,183183.39999997616,180528.844,180543.69999998808,180545.511,183195.564,,white
,Frame,canvas.Frame,3_70,2022-03-01T09:45:06.098Z,,,,0,V,2642.4890000000014,,,,,183188.09999996424,183188,180528.844,180542.89999997616,180545.511,183195.564,,white
,Fixation,canvas.Screen,3_71_0_0,2022-03-01T09:45:07.941Z,,,,1,A,1850.036999999982,timeout,,,,185030.80000001192,185028.934,183178.897,183189.19999998808,183195.564,185045.601,,grey
,Stimulus,canvas.Screen,3_71_0_1,2022-03-01T09:45:08.041Z,,,,1,A,100.00200000000768,timeout,,,,185130.89999997616,185128.936,185028.934,185031,185045.601,185145.603,,grey
,Reaction,canvas.Screen,3_71_0_2,2022-03-01T09:45:08.515Z,,,,1,A,455.4969999642344,response,,stim_detected,keydown(Space),185605.59999996424,185601.09999996424,185128.936,185131.09999996424,185145.603,185628.946,,grey
,Trial,flow.Sequence,3_71_0,2022-03-01T09:45:08.516Z,,,,1,A,2405.535999964224,completion,,,,185605.89999997616,185601.09999996424,183178.897,183189.09999996424,183195.564,185628.946,,grey
,Frame,canvas.Frame,3_71,2022-03-01T09:45:08.516Z,,,,1,A,2410.736000011908,,,,,185606.5,185606.30000001192,183178.897,183188.19999998808,183195.564,185628.946,,grey
,Fixation,canvas.Screen,3_72_0_0,2022-03-01T09:45:10.308Z,,,,1,VA,1783.369000000006,timeout,,,,187397.80000001192,187395.648,185595.612,185607.5,185628.946,187412.315,,white
,Stimulus,canvas.Screen,3_72_0_1,2022-03-01T09:45:10.408Z,,,,1,VA,100.00200000000768,timeout,,,,187497.80000001192,187495.65,187395.648,187397.89999997616,187412.315,187512.317,,white
,Reaction,canvas.Screen,3_72_0_2,2022-03-01T09:45:10.639Z,,,,1,VA,212.88299998806906,response,,stim_detected,keydown(Space),187729.59999996424,187725.19999998808,187495.65,187498,187512.317,187745.655,,white
,Trial,flow.Sequence,3_72_0,2022-03-01T09:45:10.640Z,,,,1,VA,2096.253999988083,completion,,,,187729.80000001192,187725.19999998808,185595.612,185607.39999997616,185628.946,187745.655,,white
,Frame,canvas.Frame,3_72,2022-03-01T09:45:10.640Z,,,,1,VA,2100.953999976162,,,,,187730,187729.89999997616,185595.612,185606.59999996424,185628.946,187745.655,,white
,Fixation,canvas.Screen,3_73_0_0,2022-03-01T09:45:13.041Z,,,,0,V,2400.04800000001,timeout,,,,190131.19999998808,190129.036,187728.988,187731.09999996424,187745.655,190145.703,,white
,Stimulus,canvas.Screen,3_73_0_1,2022-03-01T09:45:13.141Z,,,,0,V,100.00199999997858,timeout,,,,190231,190229.038,190129.036,190131.5,190145.703,190245.705,,white
,Reaction,canvas.Screen,3_73_0_2,2022-03-01T09:45:13.405Z,,,,0,V,244.19499997617095,response,,stim_detected,keydown(Space),190495,190489.89999997616,190229.038,190231.19999998808,190245.705,190512.377,,white
,Trial,flow.Sequence,3_73_0,2022-03-01T09:45:13.405Z,,,,0,V,2744.2449999761593,completion,,,,190495.30000001192,190489.89999997616,187728.988,187731.09999996424,187745.655,190512.377,,white
,Frame,canvas.Frame,3_73,2022-03-01T09:45:13.405Z,,,,0,V,2749.7449999761593,,,,,190495.39999997616,190495.39999997616,187728.988,187730.09999996424,187745.655,190512.377,,white
,Fixation,canvas.Screen,3_74_0_0,2022-03-01T09:45:15.024Z,,,,1,A,1616.6989999999932,timeout,,,,192114.39999997616,192112.409,190495.71,190496.5,190512.377,192129.076,,grey
,Stimulus,canvas.Screen,3_74_0_1,2022-03-01T09:45:15.125Z,,,,1,A,100.00200000000768,timeout,,,,192215.19999998808,192212.411,192112.409,192114.5,192129.076,192229.078,,grey
,Reaction,canvas.Screen,3_74_0_2,2022-03-01T09:45:15.491Z,,,,1,A,347.8219999761495,response,,stim_detected,keydown(Space),192581.30000001192,192576.89999997616,192212.411,192215.39999997616,192229.078,192595.752,,grey
,Trial,flow.Sequence,3_74_0,2022-03-01T09:45:15.491Z,,,,1,A,2064.5229999761505,completion,,,,192581.5,192576.89999997616,190495.71,190496.39999997616,190512.377,192595.752,,grey
,Frame,canvas.Frame,3_74,2022-03-01T09:45:15.492Z,,,,1,A,2069.2229999642295,,,,,192581.80000001192,192581.59999996424,190495.71,190495.59999996424,190512.377,192595.752,,grey
,Fixation,canvas.Screen,3_75_0_0,2022-03-01T09:45:17.207Z,,,,1,VA,1716.701000000001,timeout,,,,194297.19999998808,194295.786,192579.085,192582.80000001192,192595.752,194312.453,,white
,Stimulus,canvas.Screen,3_75_0_1,2022-03-01T09:45:17.308Z,,,,1,VA,100.00199999997858,timeout,,,,194397.5,194395.788,194295.786,194297.39999997616,194312.453,194412.455,,white
,Reaction,canvas.Screen,3_75_0_2,2022-03-01T09:45:17.515Z,,,,1,VA,188.24499998809188,response,,stim_detected,keydown(Space),194605.19999998808,194600.69999998808,194395.788,194397.69999998808,194412.455,194612.459,,white
,Trial,flow.Sequence,3_75_0,2022-03-01T09:45:17.515Z,,,,1,VA,2004.9479999880714,completion,,,,194605.5,194600.69999998808,192579.085,192582.80000001192,192595.752,194612.459,,white
,Frame,canvas.Frame,3_75,2022-03-01T09:45:17.516Z,,,,1,VA,2009.7479999999923,,,,,194605.59999996424,194605.5,192579.085,192581.89999997616,192595.752,194612.459,,white
,Fixation,canvas.Screen,3_76_0_0,2022-03-01T09:45:19.725Z,,,,0,V,2216.7110000000102,timeout,,,,196814.80000001192,196812.503,194595.792,194606.69999998808,194612.459,196829.17,,white
,Stimulus,canvas.Screen,3_76_0_1,2022-03-01T09:45:19.825Z,,,,0,V,100.00199999997858,timeout,,,,196915.09999996424,196912.505,196812.503,196815,196829.17,196929.172,,white
,Reaction,canvas.Screen,3_76_0_2,2022-03-01T09:45:20.044Z,,,,0,V,200.42799996424583,response,,stim_detected,keydown(Space),197134,197129.59999996424,196912.505,196915.30000001192,196929.172,197145.843,,white
,Trial,flow.Sequence,3_76_0,2022-03-01T09:45:20.044Z,,,,0,V,2517.1409999642347,completion,,,,197134.30000001192,197129.59999996424,194595.792,194606.59999996424,194612.459,197145.843,,white
,Frame,canvas.Frame,3_76,2022-03-01T09:45:20.045Z,,,,0,V,2521.9409999761556,,,,,197134.5,197134.39999997616,194595.792,194605.69999998808,194612.459,197145.843,,white
,Fixation,canvas.Screen,3_77_0_0,2022-03-01T09:45:21.825Z,,,,1,VA,1783.369000000006,timeout,,,,198915.19999998808,198912.545,197129.176,197135.69999998808,197145.843,198929.212,,white
,Stimulus,canvas.Screen,3_77_0_1,2022-03-01T09:45:21.925Z,,,,1,VA,100.00200000000768,timeout,,,,199014.5,199012.547,198912.545,198915.59999996424,198929.212,199029.214,,white
,Reaction,canvas.Screen,3_77_0_2,2022-03-01T09:45:22.114Z,,,,1,VA,170.28599999999278,response,,stim_detected,keydown(Space),199203.80000001192,199199.5,199012.547,199014.69999998808,199029.214,199212.551,,white
,Trial,flow.Sequence,3_77_0,2022-03-01T09:45:22.114Z,,,,1,VA,2053.6570000000065,completion,,,,199204.19999998808,199199.5,197129.176,197135.69999998808,197145.843,199212.551,,white
,Frame,canvas.Frame,3_77,2022-03-01T09:45:22.115Z,,,,1,VA,2058.4570000119274,,,,,199204.39999997616,199204.30000001192,197129.176,197134.59999996424,197145.843,199212.551,,white
,Fixation,canvas.Screen,3_78_0_0,2022-03-01T09:45:23.709Z,,,,1,A,1600.0320000000065,timeout,,,,200798.89999997616,200795.916,199195.884,199205.5,199212.551,200812.583,,grey
,Stimulus,canvas.Screen,3_78_0_1,2022-03-01T09:45:23.808Z,,,,1,A,100.00199999997858,timeout,,,,200897.59999996424,200895.918,200795.916,200799.09999996424,200812.583,200912.585,,grey
,Reaction,canvas.Screen,3_78_0_2,2022-03-01T09:45:24.062Z,,,,1,A,234.71500001192908,response,,stim_detected,keydown(Space),201152,201147.30000001192,200895.918,200897.80000001192,200912.585,201162.59,,grey
,Trial,flow.Sequence,3_78_0,2022-03-01T09:45:24.063Z,,,,1,A,1934.7490000119142,completion,,,,201152.39999997616,201147.30000001192,199195.884,199205.39999997616,199212.551,201162.59,,grey
,Frame,canvas.Frame,3_78,2022-03-01T09:45:24.063Z,,,,1,A,1939.8489999761514,,,,,201152.5,201152.39999997616,199195.884,199204.5,199212.551,201162.59,,grey
,Fixation,canvas.Screen,3_79_0_0,2022-03-01T09:45:25.658Z,,,,1,A,1600.0320000000065,timeout,,,,202747.80000001192,202745.955,201145.923,201153.59999996424,201162.59,202762.622,,grey
,Stimulus,canvas.Screen,3_79_0_1,2022-03-01T09:45:25.758Z,,,,1,A,100.00200000000768,timeout,,,,202847.80000001192,202845.957,202745.955,202747.89999997616,202762.622,202862.624,,grey
,Reaction,canvas.Screen,3_79_0_2,2022-03-01T09:45:26.033Z,,,,1,A,255.67600001191022,response,,stim_detected,keydown(Space),203122.80000001192,203118.30000001192,202845.957,202848.09999996424,202862.624,203129.296,,grey
,Trial,flow.Sequence,3_79_0,2022-03-01T09:45:26.033Z,,,,1,A,1955.7100000119244,completion,,,,203123.09999996424,203118.30000001192,201145.923,201153.39999997616,201162.59,203129.296,,grey
,Frame,canvas.Frame,3_79,2022-03-01T09:45:26.033Z,,,,1,A,1960.5099999642407,,,,,203123.30000001192,203123.09999996424,201145.923,201152.69999998808,201162.59,203129.296,,grey
,Fixation,canvas.Screen,3_80_0_0,2022-03-01T09:45:28.009Z,,,,1,A,1983.3729999999923,timeout,,,,205098.39999997616,205096.002,203112.629,203124.30000001192,203129.296,205112.669,,grey
,Stimulus,canvas.Screen,3_80_0_1,2022-03-01T09:45:28.109Z,,,,1,A,100.00200000000768,timeout,,,,205198.5,205196.004,205096.002,205098.59999996424,205112.669,205212.671,,grey
,Reaction,canvas.Screen,3_80_0_2,2022-03-01T09:45:28.323Z,,,,1,A,195.42899996423512,response,,stim_detected,keydown(Space),205412.5,205408.09999996424,205196.004,205198.59999996424,205212.671,205446.009,,grey
,Trial,flow.Sequence,3_80_0,2022-03-01T09:45:28.323Z,,,,1,A,2278.803999964235,completion,,,,205412.89999997616,205408.09999996424,203112.629,203124.30000001192,203129.296,205446.009,,grey
,Frame,canvas.Frame,3_80,2022-03-01T09:45:28.323Z,,,,1,A,2283.703999999998,,,,,205413.19999998808,205413,203112.629,203123.39999997616,203129.296,205446.009,,grey
,Fixation,canvas.Screen,3_81_0_0,2022-03-01T09:45:30.675Z,,,,0,V,2333.3800000000047,timeout,,,,207764.80000001192,207762.722,205412.675,205414.19999998808,205446.009,207779.389,,white
,Stimulus,canvas.Screen,3_81_0_1,2022-03-01T09:45:30.774Z,,,,0,V,100.00200000000768,timeout,,,,207864,207862.724,207762.722,207765.09999996424,207779.389,207879.391,,white
,Reaction,canvas.Screen,3_81_0_2,2022-03-01T09:45:31.029Z,,,,0,V,234.60899999999674,response,,stim_detected,keydown(Space),208119,208114,207862.724,207864.19999998808,207879.391,208129.396,,white
,Trial,flow.Sequence,3_81_0,2022-03-01T09:45:31.030Z,,,,0,V,2667.991000000009,completion,,,,208119.30000001192,208114,205412.675,205414.09999996424,205446.009,208129.396,,white
,Frame,canvas.Frame,3_81,2022-03-01T09:45:31.030Z,,,,0,V,2673.390999976167,,,,,208119.39999997616,208119.39999997616,205412.675,205413.30000001192,205446.009,208129.396,,white
,Fixation,canvas.Screen,3_82_0_0,2022-03-01T09:45:32.659Z,,,,1,VA,1633.36599999998,timeout,,,,209748.09999996424,209746.095,208112.729,208120.5,208129.396,209762.762,,white
,Stimulus,canvas.Screen,3_82_0_1,2022-03-01T09:45:32.758Z,,,,1,VA,100.00200000000768,timeout,,,,209847.30000001192,209846.097,209746.095,209748.30000001192,209762.762,209862.764,,white
,Reaction,canvas.Screen,3_82_0_2,2022-03-01T09:45:33.000Z,,,,1,VA,223.9359999880835,response,,stim_detected,keydown(Space),210089.30000001192,210086.69999998808,209846.097,209847.39999997616,209862.764,210096.102,,white
,Trial,flow.Sequence,3_82_0,2022-03-01T09:45:33.000Z,,,,1,VA,1957.3039999880712,completion,,,,210089.30000001192,210086.69999998808,208112.729,208120.5,208129.396,210096.102,,white
,Frame,canvas.Frame,3_82,2022-03-01T09:45:33.000Z,,,,1,VA,1960.0039999761502,,,,,210089.5,210089.39999997616,208112.729,208119.59999996424,208129.396,210096.102,,white
,Fixation,canvas.Screen,3_83_0_0,2022-03-01T09:45:34.926Z,,,,1,A,1933.371999999974,timeout,,,,212015.5,212012.807,210079.435,210090.09999996424,210096.102,212029.474,,grey
,Stimulus,canvas.Screen,3_83_0_1,2022-03-01T09:45:35.026Z,,,,1,A,100.00200000000768,timeout,,,,212115.30000001192,212112.809,212012.807,212015.80000001192,212029.474,212129.476,,grey
,Reaction,canvas.Screen,3_83_0_2,2022-03-01T09:45:35.274Z,,,,1,A,229.22399998808396,response,,stim_detected,keydown(Space),212363.5,212358.69999998808,212112.809,212115.5,212129.476,212379.481,,grey
,Trial,flow.Sequence,3_83_0,2022-03-01T09:45:35.274Z,,,,1,A,2262.5979999880656,completion,,,,212363.69999998808,212358.69999998808,210079.435,210090,210096.102,212379.481,,grey
,Frame,canvas.Frame,3_83,2022-03-01T09:45:35.274Z,,,,1,A,2267.6980000119074,,,,,212363.89999997616,212363.80000001192,210079.435,210089.5,210096.102,212379.481,,grey
,Fixation,canvas.Screen,3_84_0_0,2022-03-01T09:45:37.492Z,,,,1,A,2216.7110000000102,timeout,,,,214581.5,214579.525,212362.814,212364.89999997616,212379.481,214596.192,,grey
,Stimulus,canvas.Screen,3_84_0_1,2022-03-01T09:45:37.595Z,,,,1,A,100.00199999997858,timeout,,,,214684.59999996424,214679.527,214579.525,214581.80000001192,214596.192,214696.194,,grey
,Reaction,canvas.Screen,3_84_0_2,2022-03-01T09:45:37.879Z,,,,1,A,267.4059999642486,response,,stim_detected,keydown(Space),214968.39999997616,214963.59999996424,214679.527,214684.69999998808,214696.194,214979.533,,grey
,Trial,flow.Sequence,3_84_0,2022-03-01T09:45:37.879Z,,,,1,A,2584.1189999642374,completion,,,,214968.69999998808,214963.59999996424,212362.814,212364.80000001192,212379.481,214979.533,,grey
,Frame,canvas.Frame,3_84,2022-03-01T09:45:37.880Z,,,,1,A,2589.319000011921,,,,,214968.89999997616,214968.80000001192,212362.814,212364,212379.481,214979.533,,grey
,Fixation,canvas.Screen,3_85_0_0,2022-03-01T09:45:39.560Z,,,,0,V,1683.3669999999984,timeout,,,,216649,216646.233,214962.866,214970,214979.533,216662.9,,white
,Stimulus,canvas.Screen,3_85_0_1,2022-03-01T09:45:39.659Z,,,,0,V,100.00200000000768,timeout,,,,216748.19999998808,216746.235,216646.233,216649.19999998808,216662.9,216762.902,,white
,Reaction,canvas.Screen,3_85_0_2,2022-03-01T09:45:39.989Z,,,,0,V,310.59799999999814,response,,stim_detected,keydown(Space),217078,217073.5,216746.235,216748.39999997616,216762.902,217079.575,,white
,Trial,flow.Sequence,3_85_0,2022-03-01T09:45:39.989Z,,,,0,V,2093.967000000004,completion,,,,217078.30000001192,217073.5,214962.866,214969.89999997616,214979.533,217079.575,,white
,Frame,canvas.Frame,3_85,2022-03-01T09:45:39.989Z,,,,0,V,2098.767000011925,,,,,217078.5,217078.30000001192,214962.866,214969.09999996424,214979.533,217079.575,,white
,Fixation,canvas.Screen,3_86_0_0,2022-03-01T09:45:41.492Z,,,,1,VA,1516.6969999999856,timeout,,,,218581.59999996424,218579.605,217062.908,217079.5,217079.575,218596.272,,white
,Stimulus,canvas.Screen,3_86_0_1,2022-03-01T09:45:41.593Z,,,,1,VA,100.00200000000768,timeout,,,,218681.80000001192,218679.607,218579.605,218581.80000001192,218596.272,218696.274,,white
,Reaction,canvas.Screen,3_86_0_2,2022-03-01T09:45:41.799Z,,,,1,VA,187.12599997615325,response,,stim_detected,keydown(Space),218887.89999997616,218883.39999997616,218679.607,218682,218696.274,218896.278,,white
,Trial,flow.Sequence,3_86_0,2022-03-01T09:45:41.799Z,,,,1,VA,1803.8249999761465,completion,,,,218888.30000001192,218883.39999997616,217062.908,217079.39999997616,217079.575,218896.278,,white
,Frame,canvas.Frame,3_86,2022-03-01T09:45:41.799Z,,,,1,VA,1808.7250000119093,,,,,218888.5,218888.30000001192,217062.908,217078.59999996424,217079.575,218896.278,,white
,Fixation,canvas.Screen,3_87_0_0,2022-03-01T09:45:44.176Z,,,,1,A,2383.381000000023,timeout,,,,221265.5,221262.992,218879.611,218889.5,218896.278,221279.659,,grey
,Stimulus,canvas.Screen,3_87_0_1,2022-03-01T09:45:44.276Z,,,,1,A,100.00199999997858,timeout,,,,221365.19999998808,221362.994,221262.992,221265.69999998808,221279.659,221379.661,,grey
,Reaction,canvas.Screen,3_87_0_2,2022-03-01T09:45:44.507Z,,,,1,A,211.63900001192815,response,,stim_detected,keydown(Space),221595.69999998808,221591.30000001192,221362.994,221365.39999997616,221379.661,221612.999,,grey
,Trial,flow.Sequence,3_87_0,2022-03-01T09:45:44.507Z,,,,1,A,2695.02200001193,completion,,,,221596.09999996424,221591.30000001192,218879.611,218889.39999997616,218896.278,221612.999,,grey
,Frame,canvas.Frame,3_87,2022-03-01T09:45:44.507Z,,,,1,A,2699.821999964246,,,,,221596.30000001192,221596.09999996424,218879.611,218888.5,218896.278,221612.999,,grey
,Fixation,canvas.Screen,3_88_0_0,2022-03-01T09:45:46.109Z,,,,1,VA,1600.0319999999774,timeout,,,,223198.5,223196.364,221596.332,221597.69999998808,221612.999,223213.031,,white
,Stimulus,canvas.Screen,3_88_0_1,2022-03-01T09:45:46.210Z,,,,1,VA,100.00200000000768,timeout,,,,223298.89999997616,223296.366,223196.364,223198.69999998808,223213.031,223313.033,,white
,Reaction,canvas.Screen,3_88_0_2,2022-03-01T09:45:46.440Z,,,,1,VA,211.16699998808326,response,,stim_detected,keydown(Space),223528.89999997616,223524.19999998808,223296.366,223299.19999998808,223313.033,223546.371,,white
,Trial,flow.Sequence,3_88_0,2022-03-01T09:45:46.440Z,,,,1,VA,1911.2009999880684,completion,,,,223529.19999998808,223524.19999998808,221596.332,221597.59999996424,221612.999,223546.371,,white
,Frame,canvas.Frame,3_88,2022-03-01T09:45:46.440Z,,,,1,VA,1916.3010000119102,,,,,223529.39999997616,223529.30000001192,221596.332,221596.30000001192,221612.999,223546.371,,white
,Fixation,canvas.Screen,3_89_0_0,2022-03-01T09:45:48.060Z,,,,1,A,1616.6989999999932,timeout,,,,225149.39999997616,225146.403,223529.704,223530.89999997616,223546.371,225163.07,,grey
,Stimulus,canvas.Screen,3_89_0_1,2022-03-01T09:45:48.159Z,,,,1,A,100.00199999997858,timeout,,,,225247.59999996424,225246.405,225146.403,225149.80000001192,225163.07,225263.072,,grey
,Reaction,canvas.Screen,3_89_0_2,2022-03-01T09:45:48.393Z,,,,1,A,214.92800000001444,response,,stim_detected,keydown(Space),225482.39999997616,225478,225246.405,225247.69999998808,225263.072,225496.41,,grey
,Trial,flow.Sequence,3_89_0,2022-03-01T09:45:48.394Z,,,,1,A,1931.6289999999863,completion,,,,225482.69999998808,225478,223529.704,223530.80000001192,223546.371,225496.41,,grey
,Frame,canvas.Frame,3_89,2022-03-01T09:45:48.394Z,,,,1,A,1936.4290000119072,,,,,225482.89999997616,225482.80000001192,223529.704,223529.59999996424,223546.371,225496.41,,grey
,Fixation,canvas.Screen,3_90_0_0,2022-03-01T09:45:50.010Z,,,,1,A,1616.6989999999932,timeout,,,,227099.09999996424,227096.442,225479.743,225485.19999998808,225496.41,227113.109,,grey
,Stimulus,canvas.Screen,3_90_0_1,2022-03-01T09:45:50.109Z,,,,1,A,100.00200000000768,timeout,,,,227198.30000001192,227196.444,227096.442,227099.39999997616,227113.109,227213.111,,grey
,Reaction,canvas.Screen,3_90_0_2,2022-03-01T09:45:50.352Z,,,,1,A,223.88899999999558,response,,stim_detected,keydown(Space),227441.30000001192,227437,227196.444,227198.39999997616,227213.111,227446.449,,grey
,Trial,flow.Sequence,3_90_0,2022-03-01T09:45:50.353Z,,,,1,A,1940.5899999999965,completion,,,,227441.59999996424,227437,225479.743,225485.09999996424,225496.41,227446.449,,grey
,Frame,canvas.Frame,3_90,2022-03-01T09:45:50.353Z,,,,1,A,1945.3900000119174,,,,,227441.80000001192,227441.80000001192,225479.743,225482.89999997616,225496.41,227446.449,,grey
,Fixation,canvas.Screen,3_91_0_0,2022-03-01T09:45:52.659Z,,,,0,V,2316.713000000018,timeout,,,,229748.30000001192,229746.495,227429.782,227443,227446.449,229763.162,,white
,Stimulus,canvas.Screen,3_91_0_1,2022-03-01T09:45:52.760Z,,,,0,V,100.00199999997858,timeout,,,,229848.80000001192,229846.497,229746.495,229748.5,229763.162,229863.164,,white
,Reaction,canvas.Screen,3_91_0_2,2022-03-01T09:45:53.008Z,,,,0,V,229.63600001193117,response,,stim_detected,keydown(Space),230097.19999998808,230092.80000001192,229846.497,229849,229863.164,230113.169,,white
,Trial,flow.Sequence,3_91_0,2022-03-01T09:45:53.009Z,,,,0,V,2646.3510000119277,completion,,,,230097.5,230092.80000001192,227429.782,227442.89999997616,227446.449,230113.169,,white
,Frame,canvas.Frame,3_91,2022-03-01T09:45:53.009Z,,,,0,V,2651.0510000000068,,,,,230097.69999998808,230097.5,227429.782,227441.89999997616,227446.449,230113.169,,white
,Fixation,canvas.Screen,3_92_0_0,2022-03-01T09:45:55.310Z,,,,1,VA,2300.046000000002,timeout,,,,232399,232396.548,230096.502,230098.69999998808,230113.169,232413.215,,white
,Stimulus,canvas.Screen,3_92_0_1,2022-03-01T09:45:55.410Z,,,,1,VA,100.00200000000768,timeout,,,,232498.89999997616,232496.55,232396.548,232399.09999996424,232413.215,232513.217,,white
,Reaction,canvas.Screen,3_92_0_2,2022-03-01T09:45:55.608Z,,,,1,VA,179.38299996423302,response,,stim_detected,keydown(Space),232697.30000001192,232692.59999996424,232496.55,232499.19999998808,232513.217,232713.221,,white
,Trial,flow.Sequence,3_92_0,2022-03-01T09:45:55.609Z,,,,1,VA,2579.430999964243,completion,,,,232697.59999996424,232692.59999996424,230096.502,230098.59999996424,230113.169,232713.221,,white
,Frame,canvas.Frame,3_92,2022-03-01T09:45:55.609Z,,,,1,VA,2584.430999964243,,,,,232697.80000001192,232697.59999996424,230096.502,230097.89999997616,230113.169,232713.221,,white
,Fixation,canvas.Screen,3_93_0_0,2022-03-01T09:45:58.027Z,,,,1,A,2416.7149999999965,timeout,,,,235115.39999997616,235113.269,232696.554,232698.80000001192,232713.221,235129.936,,grey
,Stimulus,canvas.Screen,3_93_0_1,2022-03-01T09:45:58.126Z,,,,1,A,100.00200000000768,timeout,,,,235215.09999996424,235213.271,235113.269,235115.69999998808,235129.936,235229.938,,grey
,Reaction,canvas.Screen,3_93_0_2,2022-03-01T09:45:58.354Z,,,,1,A,207.56200000000536,response,,stim_detected,keydown(Space),235442.30000001192,235437.5,235213.271,235215.89999997616,235229.938,235446.609,,grey
,Trial,flow.Sequence,3_93_0,2022-03-01T09:45:58.354Z,,,,1,A,2724.2790000000095,completion,,,,235442.69999998808,235437.5,232696.554,232698.80000001192,232713.221,235446.609,,grey
,Frame,canvas.Frame,3_93,2022-03-01T09:45:58.354Z,,,,1,A,2729.4789999880886,,,,,235442.89999997616,235442.69999998808,232696.554,232697.89999997616,232713.221,235446.609,,grey
,Fixation,canvas.Screen,3_94_0_0,2022-03-01T09:46:00.593Z,,,,1,A,2250.045000000013,timeout,,,,237682.19999998808,237679.987,235429.942,235443.89999997616,235446.609,237696.654,,grey
,Stimulus,canvas.Screen,3_94_0_1,2022-03-01T09:46:00.696Z,,,,1,A,100.00199999997858,timeout,,,,237784.69999998808,237779.989,237679.987,237682.39999997616,237696.654,237796.656,,grey
,Reaction,canvas.Screen,3_94_0_2,2022-03-01T09:46:00.935Z,,,,1,A,222.84400000001187,response,,stim_detected,keydown(Space),238023.69999998808,238019.5,237779.989,237786,237796.656,238063.328,,grey
,Trial,flow.Sequence,3_94_0,2022-03-01T09:46:00.936Z,,,,1,A,2572.8910000000033,completion,,,,238024.89999997616,238019.5,235429.942,235443.80000001192,235446.609,238063.328,,grey
,Frame,canvas.Frame,3_94,2022-03-01T09:46:00.937Z,,,,1,A,2578.4909999642405,,,,,238025.69999998808,238025.09999996424,235429.942,235442.89999997616,235446.609,238063.328,,grey
,Fixation,canvas.Screen,3_95_0_0,2022-03-01T09:46:03.261Z,,,,1,A,2300.046000000002,timeout,,,,240349.5,240346.707,238046.661,238027,238063.328,240363.374,,grey
,Stimulus,canvas.Screen,3_95_0_1,2022-03-01T09:46:03.360Z,,,,1,A,100.00199999997858,timeout,,,,240448.69999998808,240446.709,240346.707,240349.69999998808,240363.374,240463.376,,grey
,Reaction,canvas.Screen,3_95_0_2,2022-03-01T09:46:03.564Z,,,,1,A,184.92400001193164,response,,stim_detected,keydown(Space),240652.80000001192,240648.30000001192,240446.709,240448.89999997616,240463.376,240663.38,,grey
,Trial,flow.Sequence,3_95_0,2022-03-01T09:46:03.564Z,,,,1,A,2584.9720000119123,completion,,,,240653,240648.30000001192,238046.661,238026.89999997616,238063.328,240663.38,,grey
,Frame,canvas.Frame,3_95,2022-03-01T09:46:03.565Z,,,,1,A,2589.7719999642286,,,,,240653.30000001192,240653.09999996424,238046.661,238025.89999997616,238063.328,240663.38,,grey
,Fixation,canvas.Screen,3_96_0_0,2022-03-01T09:46:05.477Z,,,,0,V,1916.7049999999872,timeout,,,,242565.5,242563.418,240646.713,240654.30000001192,240663.38,242580.085,,white
,Stimulus,canvas.Screen,3_96_0_1,2022-03-01T09:46:05.577Z,,,,0,V,100.00200000000768,timeout,,,,242665.59999996424,242663.42,242563.418,242565.69999998808,242580.085,242680.087,,white
,Reaction,canvas.Screen,3_96_0_2,2022-03-01T09:46:05.788Z,,,,0,V,191.91300000000047,response,,stim_detected,keydown(Space),242876.5,242872,242663.42,242665.80000001192,242680.087,242880.091,,white
,Trial,flow.Sequence,3_96_0,2022-03-01T09:46:05.788Z,,,,0,V,2208.6199999999953,completion,,,,242876.89999997616,242872,240646.713,240654.19999998808,240663.38,242880.091,,white
,Frame,canvas.Frame,3_96,2022-03-01T09:46:05.788Z,,,,0,V,2213.5199999761535,,,,,242877.09999996424,242876.89999997616,240646.713,240653.39999997616,240663.38,242880.091,,white
,Fixation,canvas.Screen,3_97_0_0,2022-03-01T09:46:07.977Z,,,,1,A,2200.0440000000235,timeout,,,,245065.5,245063.468,242863.424,242878,242880.091,245080.135,,grey
,Stimulus,canvas.Screen,3_97_0_1,2022-03-01T09:46:08.115Z,,,,1,A,116.66899999999441,timeout,,,,245203.59999996424,245163.47,245063.468,245065.69999998808,245080.135,245196.804,,grey
,Reaction,canvas.Screen,3_97_0_2,2022-03-01T09:46:08.307Z,,,,1,A,194.09599997615442,response,,stim_detected,keydown(Space),245395.39999997616,245390.89999997616,245163.47,245203.69999998808,245196.804,245396.808,,grey
,Trial,flow.Sequence,3_97_0,2022-03-01T09:46:08.307Z,,,,1,A,2510.8089999761723,completion,,,,245395.69999998808,245390.89999997616,242863.424,242878,242880.091,245396.808,,grey
,Frame,canvas.Frame,3_97,2022-03-01T09:46:08.307Z,,,,1,A,2515.709000011935,,,,,245395.89999997616,245395.80000001192,242863.424,242877.09999996424,242880.091,245396.808,,grey
,Fixation,canvas.Screen,3_98_0_0,2022-03-01T09:46:10.578Z,,,,1,VA,2283.3790000000154,timeout,,,,247666,247663.52,245380.141,245397.09999996424,245396.808,247680.187,,white
,Stimulus,canvas.Screen,3_98_0_1,2022-03-01T09:46:10.677Z,,,,1,VA,100.00200000000768,timeout,,,,247765.5,247763.522,247663.52,247666.19999998808,247680.187,247780.189,,white
,Reaction,canvas.Screen,3_98_0_2,2022-03-01T09:46:10.906Z,,,,1,VA,209.6110000119079,response,,stim_detected,keydown(Space),247994.59999996424,247989.80000001192,247763.522,247765.59999996424,247780.189,247996.86,,white
,Trial,flow.Sequence,3_98_0,2022-03-01T09:46:10.907Z,,,,1,VA,2592.992000011931,completion,,,,247995,247989.80000001192,245380.141,245397,245396.808,247996.86,,white
,Frame,canvas.Frame,3_98,2022-03-01T09:46:10.907Z,,,,1,VA,2598.19200000001,,,,,247995.09999996424,247995,245380.141,245396.09999996424,245396.808,247996.86,,white
,Fixation,canvas.Screen,3_99_0_0,2022-03-01T09:46:12.628Z,,,,1,VA,1733.3680000000168,timeout,,,,249716,249713.561,247980.193,247996.19999998808,247996.86,249730.228,,white
,Stimulus,canvas.Screen,3_99_0_1,2022-03-01T09:46:12.727Z,,,,1,VA,100.00200000000768,timeout,,,,249815.80000001192,249813.563,249713.561,249716.19999998808,249730.228,249830.23,,white
,Reaction,canvas.Screen,3_99_0_2,2022-03-01T09:46:12.963Z,,,,1,VA,216.36999996422674,response,,stim_detected,keydown(Space),250051.09999996424,250046.59999996424,249813.563,249815.89999997616,249830.23,250080.235,,white
,Trial,flow.Sequence,3_99_0,2022-03-01T09:46:12.963Z,,,,1,VA,2049.739999964251,completion,,,,250051.5,250046.59999996424,247980.193,247996.09999996424,247996.86,250080.235,,white
,Frame,canvas.Frame,3_99,2022-03-01T09:46:12.963Z,,,,1,VA,2054.739999964251,,,,,250051.69999998808,250051.59999996424,247980.193,247995.19999998808,247996.86,250080.235,,white
,Loop,flow.Loop,3,2022-03-01T09:46:12.964Z,,,,,,236926.10399996425,completion,,,,250052,250051.59999996424,13108.829,13111.5,13125.496,250080.235,,
,end,html.Page,4,2022-03-01T09:46:14.343Z,,,,,,1350.8649999642512,form submission,,,,251431.59999996424,251431.09999996424,250063.568,250052.09999996424,250080.235,251430.262,,
,root,flow.Sequence,,2022-03-01T09:46:14.344Z,,,,,,250355.84499996423,completion,,,,251432.69999998808,251431.09999996424,1041.921,997.3999999761581,1075.255,251430.262,,