id,sender,sender_type,sender_id,timestamp,meta,,age,aud,condition,duration,ended_on,gender,response,response_action,time_commit,time_end,time_render,time_run,time_show,time_switch,url,vis
Henry Sherman,Hello,html.Page,0,2022-03-01T09:48:30.857Z,"{""labjs_version"":""20.2.4"",""labjs_build"":{""flavor"":""development"",""commit"":""f5b4a49f956347addd546a832a3327688c2c0fef""},""location"":""https://labjs.felixhenninger.com/api/labjs_preview/index.html"",""userAgent"":""Mozilla/5.0 (Macintosh; Intel Mac OS X 10_15_7) AppleWebKit/537.36 (KHTML, like Gecko) Chrome/98.0.4758.80 Safari/537.36"",""platform"":""MacIntel"",""language"":""de-DE"",""locale"":""de"",""timeZone"":""Europe/Berlin"",""timezoneOffset"":-60,""screen_width"":1440,""screen_height"":900,""scroll_width"":1440,""scroll_height"":708,""window_innerWidth"":1440,""window_innerHeight"":756,""devicePixelRatio"":1}",,70,,,9658.409,form submission,male,,,10657.600000023842,10657,965.257,948.8000000119209,998.591,10648.784,{},
,Instructions,html.Page,1,2022-03-01T09:48:31.572Z,,,,,,722.8160000238422,form submission,,,,11372.100000023842,11371.600000023842,10632.117,10657.899999976158,10648.784,11415.466,,
,Change Background,canvas.Screen,2,2022-03-01T09:48:34.601Z,,,,,,3000.0599999999995,timeout,,,,14401.300000011921,14398.859,11365.465,11372.300000011921,11415.466,14415.526,,
,Fixation,canvas.Screen,3_0_0_0,2022-03-01T09:48:36.701Z,,,,1,VA,2100.0419999999995,timeout,,,,16501.80000001192,16498.901,14398.859,14402.800000011921,14415.526,16515.568,,white
,Stimulus,canvas.Screen,3_0_0_1,2022-03-01T09:48:36.801Z,,,,1,VA,100.00200000000041,timeout,,,,16601,16598.903,16498.901,16502.19999998808,16515.568,16615.57,,white
,Reaction,canvas.Screen,3_0_0_2,2022-03-01T09:48:37.030Z,,,,1,VA,209.62999998807936,response,,stim_detected,keydown(Space),16830.30000001192,16825.19999998808,16598.903,16601.30000001192,16615.57,16832.241,,white
,Trial,flow.Sequence,3_0_0,2022-03-01T09:48:37.030Z,,,,1,VA,2409.6739999880792,completion,,,,16830.69999998808,16825.19999998808,14398.859,14402.800000011921,14415.526,16832.241,,white
,Frame,canvas.Frame,3_0,2022-03-01T09:48:37.031Z,,,,1,VA,2415.3739999761583,,,,,16831.100000023842,16830.899999976158,14398.859,14401.699999988079,14415.526,16832.241,,white
,Fixation,canvas.Screen,3_1_0_0,2022-03-01T09:48:38.918Z,,,,1,VA,1900.0379999999968,timeout,,,,18717.899999976158,18715.612,16815.574,16832.19999998808,16832.241,18732.279,,white
,Stimulus,canvas.Screen,3_1_0_1,2022-03-01T09:48:39.018Z,,,,1,VA,100.00200000000041,timeout,,,,18818.19999998808,18815.614,18715.612,18719.80000001192,18732.279,18832.281,,white
,Reaction,canvas.Screen,3_1_0_2,2022-03-01T09:48:39.272Z,,,,1,VA,235.31900002384282,response,,stim_detected,keydown(Space),19072.19999998808,19067.600000023842,18815.614,18818.600000023842,18832.281,19082.286,,white
,Trial,flow.Sequence,3_1_0,2022-03-01T09:48:39.273Z,,,,1,VA,2235.35900002384,completion,,,,19072.80000001192,19067.600000023842,16815.574,16832.19999998808,16832.241,19082.286,,white
,Frame,canvas.Frame,3_1,2022-03-01T09:48:39.273Z,,,,1,VA,2240.6589999761563,,,,,19073.100000023842,19072.899999976158,16815.574,16831.19999998808,16832.241,19082.286,,white
,Fixation,canvas.Screen,3_2_0_0,2022-03-01T09:48:41.685Z,,,,1,VA,2416.715,timeout,,,,21485,21482.334,19065.619,19074.5,19082.286,21499.001,,white
,Stimulus,canvas.Screen,3_2_0_1,2022-03-01T09:48:41.785Z,,,,1,VA,100.00200000000041,timeout,,,,21584.69999998808,21582.336,21482.334,21485.19999998808,21499.001,21599.003,,white
,Reaction,canvas.Screen,3_2_0_2,2022-03-01T09:48:41.985Z,,,,1,VA,181.4969999999994,response,,stim_detected,keydown(Space),21785.5,21780.5,21582.336,21584.899999976158,21599.003,21799.007,,white
,Trial,flow.Sequence,3_2_0,2022-03-01T09:48:41.986Z,,,,1,VA,2698.214,completion,,,,21785.899999976158,21780.5,19065.619,19074.399999976158,19082.286,21799.007,,white
,Frame,canvas.Frame,3_2,2022-03-01T09:48:41.986Z,,,,1,VA,2703.714,,,,,21786.19999998808,21786,19065.619,19073.19999998808,19082.286,21799.007,,white
,Fixation,canvas.Screen,3_3_0_0,2022-03-01T09:48:43.918Z,,,,0,V,1933.3719999999994,timeout,,,,23717.899999976158,23715.712,21782.34,21787.399999976158,21799.007,23732.379,,white
,Stimulus,canvas.Screen,3_3_0_1,2022-03-01T09:48:44.017Z,,,,0,V,100.00200000000041,timeout,,,,23817.30000001192,23815.714,23715.712,23718.100000023842,23732.379,23832.381,,white
,Reaction,canvas.Screen,3_3_0_2,2022-03-01T09:48:44.271Z,,,,0,V,234.01899997615692,response,,stim_detected,keydown(Space),24071,24066.399999976158,23815.714,23817.5,23832.381,24082.386,,white
,Trial,flow.Sequence,3_3_0,2022-03-01T09:48:44.271Z,,,,0,V,2267.3929999761567,completion,,,,24071.30000001192,24066.399999976158,21782.34,21787.30000001192,21799.007,24082.386,,white
,Frame,canvas.Frame,3_3,2022-03-01T09:48:44.271Z,,,,0,V,2272.3929999761567,,,,,24071.5,24071.399999976158,21782.34,21786.30000001192,21799.007,24082.386,,white
,Fixation,canvas.Screen,3_4_0_0,2022-03-01T09:48:45.901Z,,,,0,V,1633.3660000000018,timeout,,,,25701.19999998808,25699.085,24065.719,24072.899999976158,24082.386,25715.752,,white
,Stimulus,canvas.Screen,3_4_0_1,2022-03-01T09:48:46.001Z,,,,0,V,100.00200000000041,timeout,,,,25801.5,25799.087,25699.085,25701.399999976158,25715.752,25815.754,,white
,Reaction,canvas.Screen,3_4_0_2,2022-03-01T09:48:46.218Z,,,,0,V,197.44599998807826,response,,stim_detected,keydown(Space),26017.69999998808,26013.19999998808,25799.087,25801.80000001192,25815.754,26032.425,,white
,Trial,flow.Sequence,3_4_0,2022-03-01T09:48:46.218Z,,,,0,V,1930.8139999880805,completion,,,,26018,26013.19999998808,24065.719,24072.69999998808,24082.386,26032.425,,white
,Frame,canvas.Frame,3_4,2022-03-01T09:48:46.218Z,,,,0,V,1935.6140000000014,,,,,26018.399999976158,26018,24065.719,24071.69999998808,24082.386,26032.425,,white
,Fixation,canvas.Screen,3_5_0_0,2022-03-01T09:48:48.218Z,,,,0,V,2000.0400000000009,timeout,,,,28017.899999976158,28015.798,26015.758,26021.399999976158,26032.425,28032.465,,white
,Stimulus,canvas.Screen,3_5_0_1,2022-03-01T09:48:48.318Z,,,,0,V,100.00200000000041,timeout,,,,28118.19999998808,28115.8,28015.798,28018.19999998808,28032.465,28132.467,,white
,Reaction,canvas.Screen,3_5_0_2,2022-03-01T09:48:48.591Z,,,,0,V,253.6330000238413,response,,stim_detected,keydown(Space),28390.899999976158,28386.100000023842,28115.8,28118.399999976158,28132.467,28399.139,,white
,Trial,flow.Sequence,3_5_0,2022-03-01T09:48:48.591Z,,,,0,V,2353.6750000238426,completion,,,,28391.19999998808,28386.100000023842,26015.758,26021.30000001192,26032.425,28399.139,,white
,Frame,canvas.Frame,3_5,2022-03-01T09:48:48.591Z,,,,0,V,2358.8750000119217,,,,,28391.399999976158,28391.30000001192,26015.758,26018.5,26032.425,28399.139,,white
,Fixation,canvas.Screen,3_6_0_0,2022-03-01T09:48:50.569Z,,,,0,V,1983.3729999999996,timeout,,,,30368.69999998808,30365.845,28382.472,28392.600000023842,28399.139,30382.512,,white
,Stimulus,canvas.Screen,3_6_0_1,2022-03-01T09:48:50.669Z,,,,0,V,100.00200000000041,timeout,,,,30468.600000023842,30465.847,30365.845,30368.899999976158,30382.512,30482.514,,white
,Reaction,canvas.Screen,3_6_0_2,2022-03-01T09:48:50.906Z,,,,0,V,219.38599997615893,response,,stim_detected,keydown(Space),30706.30000001192,30701.899999976158,30465.847,30468.69999998808,30482.514,30732.519,,white
,Trial,flow.Sequence,3_6_0,2022-03-01T09:48:50.907Z,,,,0,V,2302.760999976159,completion,,,,30706.5,30701.899999976158,28382.472,28392.5,28399.139,30732.519,,white
,Frame,canvas.Frame,3_6,2022-03-01T09:48:50.907Z,,,,0,V,2307.4610000238426,,,,,30706.69999998808,30706.600000023842,28382.472,28391.600000023842,28399.139,30732.519,,white
,Fixation,canvas.Screen,3_7_0_0,2022-03-01T09:48:53.335Z,,,,0,V,2416.7149999999965,timeout,,,,33134.60000002384,33132.567,30699.185,30707.80000001192,30732.519,33149.234,,white
,Stimulus,canvas.Screen,3_7_0_1,2022-03-01T09:48:53.434Z,,,,0,V,100.00200000000041,timeout,,,,33234.10000002384,33232.569,33132.567,33134.80000001192,33149.234,33249.236,,white
,Reaction,canvas.Screen,3_7_0_2,2022-03-01T09:48:53.799Z,,,,0,V,344.5640000119238,response,,stim_detected,keydown(Space),33598.5,33593.80000001192,33232.569,33234.30000001192,33249.236,33615.91,,white
,Trial,flow.Sequence,3_7_0,2022-03-01T09:48:53.799Z,,,,0,V,2861.2810000119207,completion,,,,33598.80000001192,33593.80000001192,30699.185,30707.69999998808,30732.519,33615.91,,white
,Frame,canvas.Frame,3_7,2022-03-01T09:48:53.799Z,,,,0,V,2866.380999976158,,,,,33599,33598.89999997616,30699.185,30706.80000001192,30732.519,33615.91,,white
,Fixation,canvas.Screen,3_8_0_0,2022-03-01T09:48:56.285Z,,,,1,VA,2483.3829999999944,timeout,,,,36084.30000001192,36082.626,33599.243,33600.10000002384,33615.91,36099.293,,white
,Stimulus,canvas.Screen,3_8_0_1,2022-03-01T09:48:56.385Z,,,,1,VA,100.00200000000041,timeout,,,,36184.69999998808,36182.628,36082.626,36084.5,36099.293,36199.295,,white
,Reaction,canvas.Screen,3_8_0_2,2022-03-01T09:48:56.564Z,,,,1,VA,159.40499998808082,response,,stim_detected,keydown(Space),36363.39999997616,36358.69999998808,36182.628,36184.80000001192,36199.295,36415.966,,white
,Trial,flow.Sequence,3_8_0,2022-03-01T09:48:56.565Z,,,,1,VA,2742.7899999880756,completion,,,,36364.60000002384,36358.69999998808,33599.243,33600.10000002384,33615.91,36415.966,,white
,Frame,canvas.Frame,3_8,2022-03-01T09:48:56.565Z,,,,1,VA,2748.8900000119174,,,,,36365,36364.80000001192,33599.243,33599.19999998808,33615.91,36415.966,,white
,Fixation,canvas.Screen,3_9_0_0,2022-03-01T09:48:58.852Z,,,,0,V,2250.0449999999983,timeout,,,,38651.80000001192,38649.344,36399.299,36366.30000001192,36415.966,38666.011,,white
,Stimulus,canvas.Screen,3_9_0_1,2022-03-01T09:48:58.956Z,,,,0,V,100.00200000000041,timeout,,,,38755.19999998808,38749.346,38649.344,38651.89999997616,38666.011,38766.013,,white
,Reaction,canvas.Screen,3_9_0_2,2022-03-01T09:48:59.188Z,,,,0,V,216.58700002384285,response,,stim_detected,keydown(Space),38987.69999998808,38982.60000002384,38749.346,38755.60000002384,38766.013,38999.351,,white
,Trial,flow.Sequence,3_9_0,2022-03-01T09:48:59.188Z,,,,0,V,2566.6340000238415,completion,,,,38988,38982.60000002384,36399.299,36366.19999998808,36415.966,38999.351,,white
,Frame,canvas.Frame,3_9,2022-03-01T09:48:59.189Z,,,,0,V,2572.1340000238415,,,,,38988.30000001192,38988.10000002384,36399.299,36365.10000002384,36415.966,38999.351,,white
,Fixation,canvas.Screen,3_10_0_0,2022-03-01T09:49:01.469Z,,,,0,V,2283.379000000001,timeout,,,,41268.19999998808,41266.063,38982.684,38989.39999997616,38999.351,41282.73,,white
,Stimulus,canvas.Screen,3_10_0_1,2022-03-01T09:49:01.569Z,,,,0,V,100.00200000000041,timeout,,,,41368.80000001192,41366.065,41266.063,41268.5,41282.73,41382.732,,white
,Reaction,canvas.Screen,3_10_0_2,2022-03-01T09:49:01.759Z,,,,0,V,170.66799997615453,response,,stim_detected,keydown(Space),41558.19999998808,41553.39999997616,41366.065,41368.89999997616,41382.732,41566.069,,white
,Trial,flow.Sequence,3_10_0,2022-03-01T09:49:01.759Z,,,,0,V,2554.0489999761558,completion,,,,41558.5,41553.39999997616,38982.684,38989.30000001192,38999.351,41566.069,,white
,Frame,canvas.Frame,3_10,2022-03-01T09:49:01.759Z,,,,0,V,2559.2490000238395,,,,,41558.69999998808,41558.60000002384,38982.684,38988.30000001192,38999.351,41566.069,,white
,Fixation,canvas.Screen,3_11_0_0,2022-03-01T09:49:04.069Z,,,,1,VA,2316.712999999996,timeout,,,,43868.5,43866.115,41549.402,41559.69999998808,41566.069,43882.782,,white
,Stimulus,canvas.Screen,3_11_0_1,2022-03-01T09:49:04.168Z,,,,1,VA,100.00200000000041,timeout,,,,43967.69999998808,43966.117,43866.115,43868.69999998808,43882.782,43982.784,,white
,Reaction,canvas.Screen,3_11_0_2,2022-03-01T09:49:04.377Z,,,,1,VA,188.41599998807942,response,,stim_detected,keydown(Space),44176.19999998808,44171.19999998808,43966.117,43967.80000001192,43982.784,44182.788,,white
,Trial,flow.Sequence,3_11_0,2022-03-01T09:49:04.377Z,,,,1,VA,2605.130999988076,completion,,,,44176.60000002384,44171.19999998808,41549.402,41559.60000002384,41566.069,44182.788,,white
,Frame,canvas.Frame,3_11,2022-03-01T09:49:04.377Z,,,,1,VA,2610.5310000238387,,,,,44176.69999998808,44176.60000002384,41549.402,41558.80000001192,41566.069,44182.788,,white
,Fixation,canvas.Screen,3_12_0_0,2022-03-01T09:49:06.519Z,,,,1,VA,2150.042999999998,timeout,,,,46318.69999998808,46316.164,44166.121,44177.80000001192,44182.788,46332.831,,white
,Stimulus,canvas.Screen,3_12_0_1,2022-03-01T09:49:06.619Z,,,,1,VA,100.00200000000041,timeout,,,,46418,46416.166,46316.164,46318.80000001192,46332.831,46432.833,,white
,Reaction,canvas.Screen,3_12_0_2,2022-03-01T09:49:06.830Z,,,,1,VA,193.16700000000128,response,,stim_detected,keydown(Space),46629,46626,46416.166,46418.10000002384,46432.833,46632.837,,white
,Trial,flow.Sequence,3_12_0,2022-03-01T09:49:06.830Z,,,,1,VA,2443.2119999999995,completion,,,,46629.10000002384,46626,44166.121,44177.69999998808,44182.788,46632.837,,white
,Frame,canvas.Frame,3_12,2022-03-01T09:49:06.830Z,,,,1,VA,2446.4119999880786,,,,,46629.30000001192,46629.19999998808,44166.121,44176.80000001192,44182.788,46632.837,,white
,Fixation,canvas.Screen,3_13_0_0,2022-03-01T09:49:08.485Z,,,,1,VA,1666.699999999997,timeout,,,,48284.60000002384,48282.87,46616.17,46629.80000001192,46632.837,48299.537,,white
,Stimulus,canvas.Screen,3_13_0_1,2022-03-01T09:49:08.586Z,,,,1,VA,100.00200000000041,timeout,,,,48385,48382.872,48282.87,48284.80000001192,48299.537,48399.539,,white
,Reaction,canvas.Screen,3_13_0_2,2022-03-01T09:49:08.780Z,,,,1,VA,176.2610000119239,response,,stim_detected,keydown(Space),48579.10000002384,48575.80000001192,48382.872,48385.10000002384,48399.539,48582.876,,white
,Trial,flow.Sequence,3_13_0,2022-03-01T09:49:08.780Z,,,,1,VA,1942.9630000119214,completion,,,,48579.39999997616,48575.80000001192,46616.17,46629.80000001192,46632.837,48582.876,,white
,Frame,canvas.Frame,3_13,2022-03-01T09:49:08.780Z,,,,1,VA,1946.5629999761586,,,,,48579.5,48579.39999997616,46616.17,46629.30000001192,46632.837,48582.876,,white
,Fixation,canvas.Screen,3_14_0_0,2022-03-01T09:49:11.053Z,,,,0,V,2283.379000000001,timeout,,,,50852.5,50849.588,48566.209,48580.10000002384,48582.876,50866.255,,white
,Stimulus,canvas.Screen,3_14_0_1,2022-03-01T09:49:11.152Z,,,,0,V,100.00200000000041,timeout,,,,50951.39999997616,50949.59,50849.588,50852.80000001192,50866.255,50966.257,,white
,Reaction,canvas.Screen,3_14_0_2,2022-03-01T09:49:11.358Z,,,,0,V,186.44299998808128,response,,stim_detected,keydown(Space),51157.39999997616,51152.69999998808,50949.59,50951.5,50966.257,51166.261,,white
,Trial,flow.Sequence,3_14_0,2022-03-01T09:49:11.358Z,,,,0,V,2569.8239999880825,completion,,,,51157.69999998808,51152.69999998808,48566.209,48580.10000002384,48582.876,51166.261,,white
,Frame,canvas.Frame,3_14,2022-03-01T09:49:11.359Z,,,,0,V,2574.9240000119244,,,,,51157.89999997616,51157.80000001192,48566.209,48579.60000002384,48582.876,51166.261,,white
,Fixation,canvas.Screen,3_15_0_0,2022-03-01T09:49:12.870Z,,,,0,V,1516.6970000000001,timeout,,,,52668.80000001192,52666.291,51149.594,51158.89999997616,51166.261,52682.958,,white
,Stimulus,canvas.Screen,3_15_0_1,2022-03-01T09:49:12.969Z,,,,0,V,100.00200000000041,timeout,,,,52768,52766.293,52666.291,52669,52682.958,52782.96,,white
,Reaction,canvas.Screen,3_15_0_2,2022-03-01T09:49:13.301Z,,,,0,V,312.8400000119218,response,,stim_detected,keydown(Space),53100.10000002384,53095.80000001192,52766.293,52768.10000002384,52782.96,53116.3,,white
,Trial,flow.Sequence,3_15_0,2022-03-01T09:49:13.301Z,,,,0,V,1929.5390000119223,completion,,,,53100.39999997616,53095.80000001192,51149.594,51158.80000001192,51166.261,53116.3,,white
,Frame,canvas.Frame,3_15,2022-03-01T09:49:13.301Z,,,,0,V,1934.2390000000014,,,,,53100.60000002384,53100.5,51149.594,51158,51166.261,53116.3,,white
,Fixation,canvas.Screen,3_16_0_0,2022-03-01T09:49:15.253Z,,,,1,VA,1950.038999999997,timeout,,,,55052.10000002384,55049.672,53099.633,53101.69999998808,53116.3,55066.339,,white
,Stimulus,canvas.Screen,3_16_0_1,2022-03-01T09:49:15.353Z,,,,1,VA,100.00200000000041,timeout,,,,55152.30000001192,55149.674,55049.672,55052.30000001192,55066.339,55166.341,,white
,Reaction,canvas.Screen,3_16_0_2,2022-03-01T09:49:15.532Z,,,,1,VA,160.35899998807872,response,,stim_detected,keydown(Space),55331.30000001192,55326.69999998808,55149.674,55152.39999997616,55166.341,55333.011,,white
,Trial,flow.Sequence,3_16_0,2022-03-01T09:49:15.532Z,,,,1,VA,2210.399999988076,completion,,,,55331.60000002384,55326.69999998808,53099.633,53101.60000002384,53116.3,55333.011,,white
,Frame,canvas.Frame,3_16,2022-03-01T09:49:15.533Z,,,,1,VA,2215.399999988076,,,,,55331.80000001192,55331.69999998808,53099.633,53100.69999998808,53116.3,55333.011,,white
,Fixation,canvas.Screen,3_17_0_0,2022-03-01T09:49:17.619Z,,,,0,V,2100.0420000000013,timeout,,,,57418.60000002384,57416.386,55316.344,55332.80000001192,55333.011,57433.053,,white
,Stimulus,canvas.Screen,3_17_0_1,2022-03-01T09:49:17.720Z,,,,0,V,100.00200000000041,timeout,,,,57519,57516.388,57416.386,57418.80000001192,57433.053,57533.055,,white
,Reaction,canvas.Screen,3_17_0_2,2022-03-01T09:49:17.966Z,,,,0,V,227.34499997615785,response,,stim_detected,keydown(Space),57764.60000002384,57760.39999997616,57516.388,57519.10000002384,57533.055,57766.393,,white
,Trial,flow.Sequence,3_17_0,2022-03-01T09:49:17.966Z,,,,0,V,2427.3889999761595,completion,,,,57764.89999997616,57760.39999997616,55316.344,55332.80000001192,55333.011,57766.393,,white
,Frame,canvas.Frame,3_17,2022-03-01T09:49:17.966Z,,,,0,V,2431.9890000000014,,,,,57765.10000002384,57765,55316.344,55331.89999997616,55333.011,57766.393,,white
,Fixation,canvas.Screen,3_18_0_0,2022-03-01T09:49:20.053Z,,,,1,VA,2100.0420000000013,timeout,,,,59852.39999997616,59849.768,57749.726,57767.5,57766.393,59866.435,,white
,Stimulus,canvas.Screen,3_18_0_1,2022-03-01T09:49:20.153Z,,,,1,VA,100.00200000000041,timeout,,,,59951.80000001192,59949.77,59849.768,59852.69999998808,59866.435,59966.437,,white
,Reaction,canvas.Screen,3_18_0_2,2022-03-01T09:49:20.371Z,,,,1,VA,198.96299997616006,response,,stim_detected,keydown(Space),60169.89999997616,60165.39999997616,59949.77,59952,59966.437,60183.108,,white
,Trial,flow.Sequence,3_18_0,2022-03-01T09:49:20.371Z,,,,1,VA,2399.0069999761618,completion,,,,60170.19999998808,60165.39999997616,57749.726,57767.39999997616,57766.393,60183.108,,white
,Frame,canvas.Frame,3_18,2022-03-01T09:49:20.371Z,,,,1,VA,2403.9070000119245,,,,,60170.5,60170.30000001192,57749.726,57765.19999998808,57766.393,60183.108,,white
,Fixation,canvas.Screen,3_19_0_0,2022-03-01T09:49:22.019Z,,,,1,VA,1650.033000000003,timeout,,,,61818,61816.474,60166.441,60171.5,60183.108,61833.141,,white
,Stimulus,canvas.Screen,3_19_0_1,2022-03-01T09:49:22.120Z,,,,1,VA,100.00199999999313,timeout,,,,61918.89999997616,61916.476,61816.474,61818.19999998808,61833.141,61933.143,,white
,Reaction,canvas.Screen,3_19_0_2,2022-03-01T09:49:22.348Z,,,,1,VA,209.15700001192454,response,,stim_detected,keydown(Space),62146.60000002384,62142.30000001192,61916.476,61919.10000002384,61933.143,62149.814,,white
,Trial,flow.Sequence,3_19_0,2022-03-01T09:49:22.348Z,,,,1,VA,1959.1920000119208,completion,,,,62147,62142.30000001192,60166.441,60171.30000001192,60183.108,62149.814,,white
,Frame,canvas.Frame,3_19,2022-03-01T09:49:22.348Z,,,,1,VA,1963.8919999999998,,,,,62147.19999998808,62147,60166.441,60170.5,60183.108,62149.814,,white
,Fixation,canvas.Screen,3_20_0_0,2022-03-01T09:49:24.786Z,,,,0,V,2450.048999999999,timeout,,,,64585.39999997616,64583.196,62133.147,62148.30000001192,62149.814,64599.863,,white
,Stimulus,canvas.Screen,3_20_0_1,2022-03-01T09:49:24.887Z,,,,0,V,100.00200000000041,timeout,,,,64685.80000001192,64683.198,64583.196,64585.5,64599.863,64699.865,,white
,Reaction,canvas.Screen,3_20_0_2,2022-03-01T09:49:25.088Z,,,,0,V,182.2350000238439,response,,stim_detected,keydown(Space),64886.69999998808,64882.10000002384,64683.198,64686,64699.865,64933.203,,white
,Trial,flow.Sequence,3_20_0,2022-03-01T09:49:25.089Z,,,,0,V,2732.2860000238434,completion,,,,64888.39999997616,64882.10000002384,62133.147,62148.19999998808,62149.814,64933.203,,white
,Frame,canvas.Frame,3_20,2022-03-01T09:49:25.090Z,,,,0,V,2738.6860000000015,,,,,64888.69999998808,64888.5,62133.147,62147.30000001192,62149.814,64933.203,,white
,Fixation,canvas.Screen,3_21_0_0,2022-03-01T09:49:27.070Z,,,,1,A,1950.038999999997,timeout,,,,66868.39999997616,66866.575,64916.536,64889.89999997616,64933.203,66883.242,,grey
,Stimulus,canvas.Screen,3_21_0_1,2022-03-01T09:49:27.170Z,,,,1,A,100.00200000000768,timeout,,,,66969,66966.577,66866.575,66868.60000002384,66883.242,66983.244,,grey
,Reaction,canvas.Screen,3_21_0_2,2022-03-01T09:49:27.479Z,,,,1,A,289.75599999999395,response,,stim_detected,keydown(Space),67277.69999998808,67273,66966.577,66969.19999998808,66983.244,67283.25,,grey
,Trial,flow.Sequence,3_21_0,2022-03-01T09:49:27.479Z,,,,1,A,2339.7969999999987,completion,,,,67278.10000002384,67273,64916.536,64889.80000001192,64933.203,67283.25,,grey
,Frame,canvas.Frame,3_21,2022-03-01T09:49:27.479Z,,,,1,A,2344.9969999880777,,,,,67278.30000001192,67278.19999998808,64916.536,64888.80000001192,64933.203,67283.25,,grey
,Fixation,canvas.Screen,3_22_0_0,2022-03-01T09:49:29.386Z,,,,1,VA,1916.7050000000017,timeout,,,,69184.5,69183.288,67266.583,67279.30000001192,67283.25,69199.955,,white
,Stimulus,canvas.Screen,3_22_0_1,2022-03-01T09:49:29.486Z,,,,1,VA,100.00199999999313,timeout,,,,69284.5,69283.29,69183.288,69184.69999998808,69199.955,69299.957,,white
,Reaction,canvas.Screen,3_22_0_2,2022-03-01T09:49:29.714Z,,,,1,VA,207.94299997616326,response,,stim_detected,keydown(Space),69512.89999997616,69507.89999997616,69283.29,69284.69999998808,69299.957,69516.628,,white
,Trial,flow.Sequence,3_22_0,2022-03-01T09:49:29.714Z,,,,1,VA,2224.649999976158,completion,,,,69513.19999998808,69507.89999997616,67266.583,67279.19999998808,67283.25,69516.628,,white
,Frame,canvas.Frame,3_22,2022-03-01T09:49:29.715Z,,,,1,VA,2229.949999988079,,,,,69513.39999997616,69513.19999998808,67266.583,67278.39999997616,67283.25,69516.628,,white
,Fixation,canvas.Screen,3_23_0_0,2022-03-01T09:49:31.654Z,,,,1,A,1950.0390000000043,timeout,,,,71452.80000001192,71450,69499.961,69514.39999997616,69516.628,71466.667,,grey
,Stimulus,canvas.Screen,3_23_0_1,2022-03-01T09:49:31.754Z,,,,1,A,100.00199999999313,timeout,,,,71552.5,71550.002,71450,71452.89999997616,71466.667,71566.669,,grey
,Reaction,canvas.Screen,3_23_0_2,2022-03-01T09:49:32.014Z,,,,1,A,242.03099998808466,response,,stim_detected,keydown(Space),71813,71808.69999998808,71550.002,71552.60000002384,71566.669,71816.674,,grey
,Trial,flow.Sequence,3_23_0,2022-03-01T09:49:32.015Z,,,,1,A,2292.071999988082,completion,,,,71813.5,71808.69999998808,69499.961,69514.39999997616,69516.628,71816.674,,grey
,Frame,canvas.Frame,3_23,2022-03-01T09:49:32.015Z,,,,1,A,2297.071999988082,,,,,71813.80000001192,71813.69999998808,69499.961,69513.5,69516.628,71816.674,,grey
,Fixation,canvas.Screen,3_24_0_0,2022-03-01T09:49:34.204Z,,,,1,A,2200.0439999999944,timeout,,,,74002.89999997616,74000.051,71800.007,71814.89999997616,71816.674,74016.718,,grey
,Stimulus,canvas.Screen,3_24_0_1,2022-03-01T09:49:34.304Z,,,,1,A,100.00200000000768,timeout,,,,74102.60000002384,74100.053,74000.051,74003.19999998808,74016.718,74116.72,,grey
,Reaction,canvas.Screen,3_24_0_2,2022-03-01T09:49:34.555Z,,,,1,A,231.8800000238407,response,,stim_detected,keydown(Space),74353.30000001192,74348.60000002384,74100.053,74102.89999997616,74116.72,74366.725,,grey
,Trial,flow.Sequence,3_24_0,2022-03-01T09:49:34.555Z,,,,1,A,2531.926000023843,completion,,,,74353.69999998808,74348.60000002384,71800.007,71814.80000001192,71816.674,74366.725,,grey
,Frame,canvas.Frame,3_24,2022-03-01T09:49:34.555Z,,,,1,A,2537.126000011922,,,,,74353.89999997616,74353.80000001192,71800.007,71814,71816.674,74366.725,,grey
,Fixation,canvas.Screen,3_25_0_0,2022-03-01T09:49:36.720Z,,,,1,A,2166.709999999992,timeout,,,,76518.80000001192,76516.768,74350.058,74355.10000002384,74366.725,76533.435,,grey
,Stimulus,canvas.Screen,3_25_0_1,2022-03-01T09:49:36.820Z,,,,1,A,100.00200000000768,timeout,,,,76618.80000001192,76616.77,76516.768,76519,76533.435,76633.437,,grey
,Reaction,canvas.Screen,3_25_0_2,2022-03-01T09:49:37.105Z,,,,1,A,265.06299999999464,response,,stim_detected,keydown(Space),76903,76898.5,76616.77,76619.10000002384,76633.437,76916.776,,grey
,Trial,flow.Sequence,3_25_0,2022-03-01T09:49:37.105Z,,,,1,A,2531.774999999994,completion,,,,76903.39999997616,76898.5,74350.058,74355,74366.725,76916.776,,grey
,Frame,canvas.Frame,3_25,2022-03-01T09:49:37.105Z,,,,1,A,2536.774999999994,,,,,76903.60000002384,76903.5,74350.058,74354,74366.725,76916.776,,grey
,Fixation,canvas.Screen,3_26_0_0,2022-03-01T09:49:38.804Z,,,,0,V,1700.0339999999997,timeout,,,,78602.60000002384,78600.143,76900.109,76905.19999998808,76916.776,78616.81,,white
,Stimulus,canvas.Screen,3_26_0_1,2022-03-01T09:49:38.903Z,,,,0,V,100.00200000000768,timeout,,,,78701.5,78700.145,78600.143,78603,78616.81,78716.812,,white
,Reaction,canvas.Screen,3_26_0_2,2022-03-01T09:49:39.199Z,,,,0,V,275.5879999761528,response,,stim_detected,keydown(Space),78997.10000002384,78992.39999997616,78700.145,78701.69999998808,78716.812,79000.151,,white
,Trial,flow.Sequence,3_26_0,2022-03-01T09:49:39.199Z,,,,0,V,2075.62399997616,completion,,,,78997.39999997616,78992.39999997616,76900.109,76905.19999998808,76916.776,79000.151,,white
,Frame,canvas.Frame,3_26,2022-03-01T09:49:39.199Z,,,,0,V,2080.724000000002,,,,,78997.60000002384,78997.5,76900.109,76903.69999998808,76916.776,79000.151,,white
,Fixation,canvas.Screen,3_27_0_0,2022-03-01T09:49:40.987Z,,,,1,VA,1800.0360000000073,timeout,,,,80785.5,80783.52,78983.484,78998.69999998808,79000.151,80800.187,,white
,Stimulus,canvas.Screen,3_27_0_1,2022-03-01T09:49:41.088Z,,,,1,VA,100.00199999999313,timeout,,,,80886.39999997616,80883.522,80783.52,80785.69999998808,80800.187,80900.189,,white
,Reaction,canvas.Screen,3_27_0_2,2022-03-01T09:49:41.307Z,,,,1,VA,200.11100001192244,response,,stim_detected,keydown(Space),81105.10000002384,81100.30000001192,80883.522,80886.5,80900.189,81116.86,,white
,Trial,flow.Sequence,3_27_0,2022-03-01T09:49:41.307Z,,,,1,VA,2100.149000011923,completion,,,,81105.39999997616,81100.30000001192,78983.484,78998.60000002384,79000.151,81116.86,,white
,Frame,canvas.Frame,3_27,2022-03-01T09:49:41.307Z,,,,1,VA,2105.349000000002,,,,,81105.60000002384,81105.5,78983.484,78997.69999998808,79000.151,81116.86,,white
,Fixation,canvas.Screen,3_28_0_0,2022-03-01T09:49:43.237Z,,,,1,VA,1933.372000000003,timeout,,,,83035.39999997616,83033.565,81100.193,81106.60000002384,81116.86,83050.232,,white
,Stimulus,canvas.Screen,3_28_0_1,2022-03-01T09:49:43.338Z,,,,1,VA,100.00199999999313,timeout,,,,83136,83133.567,83033.565,83035.69999998808,83050.232,83150.234,,white
,Reaction,canvas.Screen,3_28_0_2,2022-03-01T09:49:43.535Z,,,,1,VA,178.96599998808233,response,,stim_detected,keydown(Space),83333.69999998808,83329.19999998808,83133.567,83136.30000001192,83150.234,83350.238,,white
,Trial,flow.Sequence,3_28_0,2022-03-01T09:49:43.536Z,,,,1,VA,2212.3399999880785,completion,,,,83334.10000002384,83329.19999998808,81100.193,81106.5,81116.86,83350.238,,white
,Frame,canvas.Frame,3_28,2022-03-01T09:49:43.536Z,,,,1,VA,2217.2400000238413,,,,,83334.19999998808,83334.10000002384,81100.193,81105.69999998808,81116.86,83350.238,,white
,Fixation,canvas.Screen,3_29_0_0,2022-03-01T09:49:46.038Z,,,,1,A,2500.050000000003,timeout,,,,85836.10000002384,85833.621,83333.571,83335.30000001192,83350.238,85850.288,,grey
,Stimulus,canvas.Screen,3_29_0_1,2022-03-01T09:49:46.137Z,,,,1,A,100.00199999999313,timeout,,,,85935.60000002384,85933.623,85833.621,85836.19999998808,85850.288,85950.29,,grey
,Reaction,canvas.Screen,3_29_0_2,2022-03-01T09:49:46.306Z,,,,1,A,149.7100000000064,response,,stim_detected,keydown(Space),86104.39999997616,86100,85933.623,85935.80000001192,85950.29,86116.96,,grey
,Trial,flow.Sequence,3_29_0,2022-03-01T09:49:46.306Z,,,,1,A,2749.7620000000024,completion,,,,86104.69999998808,86100,83333.571,83335.19999998808,83350.238,86116.96,,grey
,Frame,canvas.Frame,3_29,2022-03-01T09:49:46.307Z,,,,1,A,2754.5620000119234,,,,,86105,86104.80000001192,83333.571,83334.30000001192,83350.238,86116.96,,grey
,Fixation,canvas.Screen,3_30_0_0,2022-03-01T09:49:47.971Z,,,,1,A,1666.699999999997,timeout,,,,87769.19999998808,87766.993,86100.293,86106.10000002384,86116.96,87783.66,,grey
,Stimulus,canvas.Screen,3_30_0_1,2022-03-01T09:49:48.071Z,,,,1,A,100.00199999999313,timeout,,,,87869.10000002384,87866.995,87766.993,87769.39999997616,87783.66,87883.662,,grey
,Reaction,canvas.Screen,3_30_0_2,2022-03-01T09:49:48.325Z,,,,1,A,235.33800000000338,response,,stim_detected,keydown(Space),88123.5,88119,87866.995,87869.19999998808,87883.662,88133.667,,grey
,Trial,flow.Sequence,3_30_0,2022-03-01T09:49:48.326Z,,,,1,A,2002.0399999999936,completion,,,,88123.80000001192,88119,86100.293,86106,86116.96,88133.667,,grey
,Frame,canvas.Frame,3_30,2022-03-01T09:49:48.326Z,,,,1,A,2006.9399999761517,,,,,88124,88123.89999997616,86100.293,86105,86116.96,88133.667,,grey
,Fixation,canvas.Screen,3_31_0_0,2022-03-01T09:49:50.671Z,,,,1,VA,2350.047000000006,timeout,,,,90469.10000002384,90467.047,88117,88125,88133.667,90483.714,,white
,Stimulus,canvas.Screen,3_31_0_1,2022-03-01T09:49:50.772Z,,,,1,VA,100.00199999999313,timeout,,,,90570.19999998808,90567.049,90467.047,90469.30000001192,90483.714,90583.716,,white
,Reaction,canvas.Screen,3_31_0_2,2022-03-01T09:49:51.001Z,,,,1,VA,211.08400001192058,response,,stim_detected,keydown(Space),90799.60000002384,90794.80000001192,90567.049,90570.39999997616,90583.716,90817.054,,white
,Trial,flow.Sequence,3_31_0,2022-03-01T09:49:51.002Z,,,,1,VA,2661.1330000119196,completion,,,,90799.89999997616,90794.80000001192,88117,88125,88133.667,90817.054,,white
,Frame,canvas.Frame,3_31,2022-03-01T09:49:51.002Z,,,,1,VA,2666.3329999999987,,,,,90800.10000002384,90800,88117,88124.10000002384,88133.667,90817.054,,white
,Fixation,canvas.Screen,3_32_0_0,2022-03-01T09:49:52.571Z,,,,1,A,1566.6979999999894,timeout,,,,92369.10000002384,92367.085,90800.387,90801.19999998808,90817.054,92383.752,,grey
,Stimulus,canvas.Screen,3_32_0_1,2022-03-01T09:49:52.670Z,,,,1,A,100.00200000000768,timeout,,,,92468.30000001192,92467.087,92367.085,92369.30000001192,92383.752,92483.754,,grey
,Reaction,canvas.Screen,3_32_0_2,2022-03-01T09:49:52.973Z,,,,1,A,282.84600002384104,response,,stim_detected,keydown(Space),92771.10000002384,92766.60000002384,92467.087,92468.60000002384,92483.754,92783.76,,grey
,Trial,flow.Sequence,3_32_0,2022-03-01T09:49:52.973Z,,,,1,A,1949.5460000238381,completion,,,,92771.30000001192,92766.60000002384,90800.387,90801.10000002384,90817.054,92783.76,,grey
,Frame,canvas.Frame,3_32,2022-03-01T09:49:52.974Z,,,,1,A,1954.3459999761544,,,,,92771.60000002384,92771.39999997616,90800.387,90800.19999998808,90817.054,92783.76,,grey
,Fixation,canvas.Screen,3_33_0_0,2022-03-01T09:49:54.505Z,,,,1,A,1533.3640000000014,timeout,,,,94302.60000002384,94300.457,92767.093,92772.60000002384,92783.76,94317.124,,grey
,Stimulus,canvas.Screen,3_33_0_1,2022-03-01T09:49:54.605Z,,,,1,A,100.00200000000768,timeout,,,,94403,94400.459,94300.457,94302.89999997616,94317.124,94417.126,,grey
,Reaction,canvas.Screen,3_33_0_2,2022-03-01T09:49:54.808Z,,,,1,A,184.37399999999616,response,,stim_detected,keydown(Space),94606,94601.5,94400.459,94403.19999998808,94417.126,94617.13,,grey
,Trial,flow.Sequence,3_33_0,2022-03-01T09:49:54.808Z,,,,1,A,1817.7400000000052,completion,,,,94606.30000001192,94601.5,92767.093,92772.5,92783.76,94617.13,,grey
,Frame,canvas.Frame,3_33,2022-03-01T09:49:54.809Z,,,,1,A,1822.6399999761634,,,,,94606.5,94606.39999997616,92767.093,92771.69999998808,92783.76,94617.13,,grey
,Fixation,canvas.Screen,3_34_0_0,2022-03-01T09:49:56.722Z,,,,1,VA,1916.7050000000017,timeout,,,,96519.80000001192,96517.168,94600.463,94607.60000002384,94617.13,96533.835,,white
,Stimulus,canvas.Screen,3_34_0_1,2022-03-01T09:49:56.821Z,,,,1,VA,100.00199999999313,timeout,,,,96619.10000002384,96617.17,96517.168,96520,96533.835,96633.837,,white
,Reaction,canvas.Screen,3_34_0_2,2022-03-01T09:49:57.034Z,,,,1,VA,193.66300000000047,response,,stim_detected,keydown(Space),96831.80000001192,96827.5,96617.17,96619.19999998808,96633.837,96833.841,,white
,Trial,flow.Sequence,3_34_0,2022-03-01T09:49:57.034Z,,,,1,VA,2210.3699999999953,completion,,,,96832,96827.5,94600.463,94607.60000002384,94617.13,96833.841,,white
,Frame,canvas.Frame,3_34,2022-03-01T09:49:57.034Z,,,,1,VA,2214.8699999999953,,,,,96832.19999998808,96832,94600.463,94606.60000002384,94617.13,96833.841,,white
,Fixation,canvas.Screen,3_35_0_0,2022-03-01T09:49:59.271Z,,,,1,VA,2250.0449999999983,timeout,,,,99069,99067.219,96817.174,96833.30000001192,96833.841,99083.886,,white
,Stimulus,canvas.Screen,3_35_0_1,2022-03-01T09:49:59.372Z,,,,1,VA,100.00200000000768,timeout,,,,99170.10000002384,99167.221,99067.219,99069.19999998808,99083.886,99183.888,,white
,Reaction,canvas.Screen,3_35_0_2,2022-03-01T09:49:59.661Z,,,,1,VA,270.3119999880728,response,,stim_detected,keydown(Space),99458.60000002384,99454.19999998808,99167.221,99170.39999997616,99183.888,99467.227,,white
,Trial,flow.Sequence,3_35_0,2022-03-01T09:49:59.661Z,,,,1,VA,2620.3589999880787,completion,,,,99459,99454.19999998808,96817.174,96833.10000002384,96833.841,99467.227,,white
,Frame,canvas.Frame,3_35,2022-03-01T09:49:59.661Z,,,,1,VA,2625.2590000238415,,,,,99459.19999998808,99459.10000002384,96817.174,96832.30000001192,96833.841,99467.227,,white
,Fixation,canvas.Screen,3_36_0_0,2022-03-01T09:50:01.488Z,,,,1,VA,1833.3699999999953,timeout,,,,101286.10000002384,101283.93,99450.56,99460.30000001192,99467.227,101300.597,,white
,Stimulus,canvas.Screen,3_36_0_1,2022-03-01T09:50:01.589Z,,,,1,VA,100.00200000000768,timeout,,,,101386.30000001192,101383.932,101283.93,101286.30000001192,101300.597,101400.599,,white
,Reaction,canvas.Screen,3_36_0_2,2022-03-01T09:50:01.814Z,,,,1,VA,206.6009999880771,response,,stim_detected,keydown(Space),101611.89999997616,101607.19999998808,101383.932,101386.5,101400.599,101617.27,,white
,Trial,flow.Sequence,3_36_0,2022-03-01T09:50:01.814Z,,,,1,VA,2139.97299998808,completion,,,,101612.19999998808,101607.19999998808,99450.56,99460.19999998808,99467.227,101617.27,,white
,Frame,canvas.Frame,3_36,2022-03-01T09:50:01.815Z,,,,1,VA,2145.073000011922,,,,,101612.39999997616,101612.30000001192,99450.56,99459.39999997616,99467.227,101617.27,,white
,Fixation,canvas.Screen,3_37_0_0,2022-03-01T09:50:04.256Z,,,,1,VA,2450.048999999999,timeout,,,,104053.5,104050.652,101600.603,101613.60000002384,101617.27,104067.319,,white
,Stimulus,canvas.Screen,3_37_0_1,2022-03-01T09:50:04.355Z,,,,1,VA,100.00199999999313,timeout,,,,104152.80000001192,104150.654,104050.652,104053.80000001192,104067.319,104167.321,,white
,Reaction,canvas.Screen,3_37_0_2,2022-03-01T09:50:04.561Z,,,,1,VA,186.67900000000373,response,,stim_detected,keydown(Space),104358.60000002384,104354,104150.654,104153.39999997616,104167.321,104367.325,,white
,Trial,flow.Sequence,3_37_0,2022-03-01T09:50:04.561Z,,,,1,VA,2736.729999999996,completion,,,,104359.10000002384,104354,101600.603,101613.5,101617.27,104367.325,,white
,Frame,canvas.Frame,3_37,2022-03-01T09:50:04.562Z,,,,1,VA,2741.929999988075,,,,,104359.30000001192,104359.19999998808,101600.603,101612.5,101617.27,104367.325,,white
,Fixation,canvas.Screen,3_38_0_0,2022-03-01T09:50:06.421Z,,,,1,VA,1866.703999999998,timeout,,,,106218.80000001192,106217.362,104350.658,104360.30000001192,104367.325,106234.029,,white
,Stimulus,canvas.Screen,3_38_0_1,2022-03-01T09:50:06.521Z,,,,1,VA,100.00200000000768,timeout,,,,106319.10000002384,106317.364,106217.362,106219.10000002384,106234.029,106334.031,,white
,Reaction,canvas.Screen,3_38_0_2,2022-03-01T09:50:06.723Z,,,,1,VA,182.6689999880764,response,,stim_detected,keydown(Space),106521,106516.69999998808,106317.364,106319.30000001192,106334.031,106534.035,,white
,Trial,flow.Sequence,3_38_0,2022-03-01T09:50:06.724Z,,,,1,VA,2149.374999988082,completion,,,,106521.39999997616,106516.69999998808,104350.658,104360.30000001192,104367.325,106534.035,,white
,Frame,canvas.Frame,3_38,2022-03-01T09:50:06.724Z,,,,1,VA,2154.175000000003,,,,,106521.60000002384,106521.5,104350.658,104359.39999997616,104367.325,106534.035,,white
,Fixation,canvas.Screen,3_39_0_0,2022-03-01T09:50:08.806Z,,,,0,V,2100.0420000000013,timeout,,,,108603.19999998808,108600.743,106517.368,106522.60000002384,106534.035,108634.077,,white
,Stimulus,canvas.Screen,3_39_0_1,2022-03-01T09:50:08.922Z,,,,0,V,100.00199999999313,timeout,,,,108719.5,108717.412,108600.743,108603.39999997616,108634.077,108734.079,,white
,Reaction,canvas.Screen,3_39_0_2,2022-03-01T09:50:09.171Z,,,,0,V,229.72100001192302,response,,stim_detected,keydown(Space),108968.19999998808,108963.80000001192,108717.412,108719.89999997616,108734.079,108984.084,,white
,Trial,flow.Sequence,3_39_0,2022-03-01T09:50:09.171Z,,,,0,V,2429.7650000119174,completion,,,,108968.5,108963.80000001192,106517.368,106522.5,106534.035,108984.084,,white
,Frame,canvas.Frame,3_39,2022-03-01T09:50:09.171Z,,,,0,V,2434.6649999880756,,,,,108968.69999998808,108968.69999998808,106517.368,106521.69999998808,106534.035,108984.084,,white
,Fixation,canvas.Screen,3_40_0_0,2022-03-01T09:50:10.939Z,,,,1,A,1766.7019999999902,timeout,,,,110736.69999998808,110734.119,108967.417,108969.80000001192,108984.084,110750.786,,grey
,Stimulus,canvas.Screen,3_40_0_1,2022-03-01T09:50:11.039Z,,,,1,A,100.00200000000768,timeout,,,,110836.80000001192,110834.121,110734.119,110736.89999997616,110750.786,110850.788,,grey
,Reaction,canvas.Screen,3_40_0_2,2022-03-01T09:50:11.354Z,,,,1,A,297.71199999999953,response,,stim_detected,keydown(Space),111151,111148.5,110834.121,110837,110850.788,111167.461,,grey
,Trial,flow.Sequence,3_40_0,2022-03-01T09:50:11.354Z,,,,1,A,2164.4159999999974,completion,,,,111151.19999998808,111148.5,108967.417,108969.69999998808,108984.084,111167.461,,grey
,Frame,canvas.Frame,3_40,2022-03-01T09:50:11.354Z,,,,1,A,2167.2160000119184,,,,,111151.30000001192,111151.30000001192,108967.417,108968.89999997616,108984.084,111167.461,,grey
,Fixation,canvas.Screen,3_41_0_0,2022-03-01T09:50:13.672Z,,,,1,VA,2316.7130000000034,timeout,,,,113469.30000001192,113467.507,111150.794,111151.89999997616,111167.461,113484.174,,white
,Stimulus,canvas.Screen,3_41_0_1,2022-03-01T09:50:13.772Z,,,,1,VA,100.00200000000768,timeout,,,,113569.39999997616,113567.509,113467.507,113469.30000001192,113484.174,113584.176,,white
,Reaction,canvas.Screen,3_41_0_2,2022-03-01T09:50:14.007Z,,,,1,VA,217.12400001191418,response,,stim_detected,keydown(Space),113804.10000002384,113801.30000001192,113567.509,113569.5,113584.176,113817.514,,white
,Trial,flow.Sequence,3_41_0,2022-03-01T09:50:14.007Z,,,,1,VA,2633.8390000119252,completion,,,,113804.30000001192,113801.30000001192,111150.794,111151.80000001192,111167.461,113817.514,,white
,Frame,canvas.Frame,3_41,2022-03-01T09:50:14.007Z,,,,1,VA,2636.8390000119252,,,,,113804.30000001192,113804.30000001192,111150.794,111151.39999997616,111167.461,113817.514,,white
,Fixation,canvas.Screen,3_42_0_0,2022-03-01T09:50:15.638Z,,,,1,VA,1633.366000000009,timeout,,,,115435.60000002384,115434.213,113800.847,113805,113817.514,115450.88,,white
,Stimulus,canvas.Screen,3_42_0_1,2022-03-01T09:50:15.740Z,,,,1,VA,100.00199999999313,timeout,,,,115536.89999997616,115534.215,115434.213,115435.80000001192,115450.88,115550.882,,white
,Reaction,canvas.Screen,3_42_0_2,2022-03-01T09:50:15.973Z,,,,1,VA,216.31799998808128,response,,stim_detected,keydown(Space),115770.19999998808,115767.19999998808,115534.215,115537,115550.882,115784.22,,white
,Trial,flow.Sequence,3_42_0,2022-03-01T09:50:15.973Z,,,,1,VA,1949.6859999880835,completion,,,,115770.39999997616,115767.19999998808,113800.847,113804.89999997616,113817.514,115784.22,,white
,Frame,canvas.Frame,3_42,2022-03-01T09:50:15.973Z,,,,1,VA,1952.8859999761626,,,,,115770.5,115770.39999997616,113800.847,113804.39999997616,113817.514,115784.22,,white
,Fixation,canvas.Screen,3_43_0_0,2022-03-01T09:50:17.839Z,,,,0,V,1866.703999999998,timeout,,,,117635.80000001192,117634.257,115767.553,115771.10000002384,115784.22,117650.924,,white
,Stimulus,canvas.Screen,3_43_0_1,2022-03-01T09:50:17.938Z,,,,0,V,100.00200000000768,timeout,,,,117735.5,117734.259,117634.257,117635.89999997616,117650.924,117750.926,,white
,Reaction,canvas.Screen,3_43_0_2,2022-03-01T09:50:18.196Z,,,,0,V,239.1740000238351,response,,stim_detected,keydown(Space),117992.80000001192,117990.10000002384,117734.259,117735.60000002384,117750.926,118000.931,,white
,Trial,flow.Sequence,3_43_0,2022-03-01T09:50:18.196Z,,,,0,V,2205.8800000238407,completion,,,,117993,117990.10000002384,115767.553,115771.10000002384,115784.22,118000.931,,white
,Frame,canvas.Frame,3_43,2022-03-01T09:50:18.196Z,,,,0,V,2208.779999999999,,,,,117993.10000002384,117993,115767.553,115770.5,115784.22,118000.931,,white
,Fixation,canvas.Screen,3_44_0_0,2022-03-01T09:50:19.905Z,,,,1,VA,1716.701000000001,timeout,,,,119702.10000002384,119700.965,117984.264,117993.69999998808,118000.931,119717.632,,white
,Stimulus,canvas.Screen,3_44_0_1,2022-03-01T09:50:20.006Z,,,,1,VA,100.00200000000768,timeout,,,,119803.10000002384,119800.967,119700.965,119702.19999998808,119717.632,119817.634,,white
,Reaction,canvas.Screen,3_44_0_2,2022-03-01T09:50:20.231Z,,,,1,VA,207.36599999999453,response,,stim_detected,keydown(Space),120028.5,120025,119800.967,119803.5,119817.634,120034.305,,white
,Trial,flow.Sequence,3_44_0,2022-03-01T09:50:20.231Z,,,,1,VA,2024.0690000000031,completion,,,,120028.69999998808,120025,117984.264,117993.69999998808,118000.931,120034.305,,white
,Frame,canvas.Frame,3_44,2022-03-01T09:50:20.232Z,,,,1,VA,2027.7689999880822,,,,,120028.80000001192,120028.69999998808,117984.264,117993.10000002384,118000.931,120034.305,,white
,Fixation,canvas.Screen,3_45_0_0,2022-03-01T09:50:22.606Z,,,,0,V,2383.3810000000085,timeout,,,,122403.5,122401.019,120017.638,120029.39999997616,120034.305,122417.686,,white
,Stimulus,canvas.Screen,3_45_0_1,2022-03-01T09:50:22.706Z,,,,0,V,100.00199999999313,timeout,,,,122503.60000002384,122501.021,122401.019,122404.10000002384,122417.686,122517.688,,white
,Reaction,canvas.Screen,3_45_0_2,2022-03-01T09:50:22.896Z,,,,0,V,171.2119999761635,response,,stim_detected,keydown(Space),122693.19999998808,122688.89999997616,122501.021,122503.80000001192,122517.688,122701.025,,white
,Trial,flow.Sequence,3_45_0,2022-03-01T09:50:22.897Z,,,,0,V,2654.594999976165,completion,,,,122693.69999998808,122688.89999997616,120017.638,120029.30000001192,120034.305,122701.025,,white
,Frame,canvas.Frame,3_45,2022-03-01T09:50:22.897Z,,,,0,V,2659.495000011928,,,,,122694,122693.80000001192,120017.638,120028.80000001192,120034.305,122701.025,,white
,Fixation,canvas.Screen,3_46_0_0,2022-03-01T09:50:25.056Z,,,,1,A,2166.7100000000064,timeout,,,,124853.30000001192,124851.068,122684.358,122695.30000001192,122701.025,124867.735,,grey
,Stimulus,canvas.Screen,3_46_0_1,2022-03-01T09:50:25.156Z,,,,1,A,100.00199999999313,timeout,,,,124953.10000002384,124951.07,124851.068,124853.60000002384,124867.735,124967.737,,grey
,Reaction,canvas.Screen,3_46_0_2,2022-03-01T09:50:25.479Z,,,,1,A,304.0630000119272,response,,stim_detected,keydown(Space),125276.39999997616,125271.80000001192,124951.07,124953.19999998808,124967.737,125284.41,,grey
,Trial,flow.Sequence,3_46_0,2022-03-01T09:50:25.480Z,,,,1,A,2570.7750000119267,completion,,,,125276.60000002384,125271.80000001192,122684.358,122695.19999998808,122701.025,125284.41,,grey
,Frame,canvas.Frame,3_46,2022-03-01T09:50:25.480Z,,,,1,A,2575.674999988085,,,,,125276.80000001192,125276.69999998808,122684.358,122694.30000001192,122701.025,125284.41,,grey
,Fixation,canvas.Screen,3_47_0_0,2022-03-01T09:50:27.473Z,,,,0,V,2000.0399999999936,timeout,,,,127269.60000002384,127267.783,125267.743,125277.89999997616,125284.41,127284.45,,white
,Stimulus,canvas.Screen,3_47_0_1,2022-03-01T09:50:27.573Z,,,,0,V,100.00200000000768,timeout,,,,127370.19999998808,127367.785,127267.783,127269.80000001192,127284.45,127384.452,,white
,Reaction,canvas.Screen,3_47_0_2,2022-03-01T09:50:27.830Z,,,,0,V,238.44799997615337,response,,stim_detected,keydown(Space),127627.19999998808,127622.89999997616,127367.785,127370.5,127384.452,127634.457,,white
,Trial,flow.Sequence,3_47_0,2022-03-01T09:50:27.830Z,,,,0,V,2338.4899999761546,completion,,,,127627.5,127622.89999997616,125267.743,125277.80000001192,125284.41,127634.457,,white
,Frame,canvas.Frame,3_47,2022-03-01T09:50:27.831Z,,,,0,V,2343.1900000238384,,,,,127627.60000002384,127627.60000002384,125267.743,125276.89999997616,125284.41,127634.457,,white
,Fixation,canvas.Screen,3_48_0_0,2022-03-01T09:50:30.307Z,,,,1,A,2500.050000000003,timeout,,,,130103.80000001192,130101.173,127617.79,127628.80000001192,127634.457,130134.507,,grey
,Stimulus,canvas.Screen,3_48_0_1,2022-03-01T09:50:30.423Z,,,,1,A,100.00200000000768,timeout,,,,130220,130217.842,130101.173,130104,130134.507,130234.509,,grey
,Reaction,canvas.Screen,3_48_0_2,2022-03-01T09:50:30.665Z,,,,1,A,223.0910000238364,response,,stim_detected,keydown(Space),130462.30000001192,130457.60000002384,130217.842,130220.30000001192,130234.509,130467.847,,grey
,Trial,flow.Sequence,3_48_0,2022-03-01T09:50:30.666Z,,,,1,A,2823.143000023847,completion,,,,130462.80000001192,130457.60000002384,127617.79,127628.69999998808,127634.457,130467.847,,grey
,Frame,canvas.Frame,3_48,2022-03-01T09:50:30.666Z,,,,1,A,2828.4429999761633,,,,,130463,130462.89999997616,127617.79,127627.80000001192,127634.457,130467.847,,grey
,Fixation,canvas.Screen,3_49_0_0,2022-03-01T09:50:32.423Z,,,,0,V,1766.7020000000048,timeout,,,,132219.89999997616,132217.882,130451.18,130464.10000002384,130467.847,132234.549,,white
,Stimulus,canvas.Screen,3_49_0_1,2022-03-01T09:50:32.523Z,,,,0,V,100.00200000000768,timeout,,,,132319.39999997616,132317.884,132217.882,132220.39999997616,132234.549,132334.551,,white
,Reaction,canvas.Screen,3_49_0_2,2022-03-01T09:50:32.769Z,,,,0,V,228.74900001191418,response,,stim_detected,keydown(Space),132566.10000002384,132563.30000001192,132317.884,132319.5,132334.551,132567.889,,white
,Trial,flow.Sequence,3_49_0,2022-03-01T09:50:32.769Z,,,,0,V,2095.4530000119266,completion,,,,132566.30000001192,132563.30000001192,130451.18,130464,130467.847,132567.889,,white
,Frame,canvas.Frame,3_49,2022-03-01T09:50:32.770Z,,,,0,V,2098.4530000119266,,,,,132566.39999997616,132566.30000001192,130451.18,130463.19999998808,130467.847,132567.889,,white
,Fixation,canvas.Screen,3_50_0_0,2022-03-01T09:50:34.723Z,,,,1,VA,1966.7060000000056,timeout,,,,134519.39999997616,134517.928,132551.222,132567,132567.889,134534.595,,white
,Stimulus,canvas.Screen,3_50_0_1,2022-03-01T09:50:34.822Z,,,,1,VA,100.00200000000768,timeout,,,,134619.19999998808,134617.93,134517.928,134519.60000002384,134534.595,134634.597,,white
,Reaction,canvas.Screen,3_50_0_2,2022-03-01T09:50:35.088Z,,,,1,VA,245.8029999761493,response,,stim_detected,keydown(Space),134884.89999997616,134880.39999997616,134617.93,134619.30000001192,134634.597,134901.269,,white
,Trial,flow.Sequence,3_50_0,2022-03-01T09:50:35.088Z,,,,1,VA,2312.5109999761626,completion,,,,134885.19999998808,134880.39999997616,132551.222,132567,132567.889,134901.269,,white
,Frame,canvas.Frame,3_50,2022-03-01T09:50:35.089Z,,,,1,VA,2317.4110000119254,,,,,134885.39999997616,134885.30000001192,132551.222,132566.39999997616,132567.889,134901.269,,white
,Fixation,canvas.Screen,3_51_0_0,2022-03-01T09:50:36.689Z,,,,1,VA,1600.0320000000065,timeout,,,,136486.30000001192,136484.634,134884.602,134886.60000002384,134901.269,136501.301,,white
,Stimulus,canvas.Screen,3_51_0_1,2022-03-01T09:50:36.789Z,,,,1,VA,100.00200000000768,timeout,,,,136586.19999998808,136584.636,136484.634,136486.39999997616,136501.301,136601.303,,white
,Reaction,canvas.Screen,3_51_0_2,2022-03-01T09:50:37.069Z,,,,1,VA,259.19699999998556,response,,stim_detected,keydown(Space),136865.60000002384,136860.5,136584.636,136586.39999997616,136601.303,136884.642,,white
,Trial,flow.Sequence,3_51_0,2022-03-01T09:50:37.069Z,,,,1,VA,1959.2309999999998,completion,,,,136865.80000001192,136860.5,134884.602,134886.5,134901.269,136884.642,,white
,Frame,canvas.Frame,3_51,2022-03-01T09:50:37.069Z,,,,1,VA,1964.630999976158,,,,,136866,136865.89999997616,134884.602,134885.60000002384,134901.269,136884.642,,white
,Fixation,canvas.Screen,3_52_0_0,2022-03-01T09:50:39.557Z,,,,1,A,2483.3830000000016,timeout,,,,139353.30000001192,139351.358,136867.975,136866.80000001192,136884.642,139368.025,,grey
,Stimulus,canvas.Screen,3_52_0_1,2022-03-01T09:50:39.657Z,,,,1,A,100.00200000000768,timeout,,,,139454.19999998808,139451.36,139351.358,139353.5,139368.025,139468.027,,grey
,Reaction,canvas.Screen,3_52_0_2,2022-03-01T09:50:40.002Z,,,,1,A,325.97299999999814,response,,stim_detected,keydown(Space),139798.30000001192,139794,139451.36,139454.39999997616,139468.027,139801.367,,grey
,Trial,flow.Sequence,3_52_0,2022-03-01T09:50:40.002Z,,,,1,A,2909.3580000000075,completion,,,,139798.69999998808,139794,136867.975,136866.69999998808,136884.642,139801.367,,grey
,Frame,canvas.Frame,3_52,2022-03-01T09:50:40.002Z,,,,1,A,2914.1580000119284,,,,,139798.89999997616,139798.80000001192,136867.975,136866.10000002384,136884.642,139801.367,,grey
,Fixation,canvas.Screen,3_53_0_0,2022-03-01T09:50:41.857Z,,,,1,A,1866.703999999998,timeout,,,,141653.60000002384,141651.404,139784.7,139799.89999997616,139801.367,141668.071,,grey
,Stimulus,canvas.Screen,3_53_0_1,2022-03-01T09:50:41.957Z,,,,1,A,100.00200000000768,timeout,,,,141753.60000002384,141751.406,141651.404,141653.69999998808,141668.071,141768.073,,grey
,Reaction,canvas.Screen,3_53_0_2,2022-03-01T09:50:42.301Z,,,,1,A,324.72700001191697,response,,stim_detected,keydown(Space),142097.5,142092.80000001192,141751.406,141753.69999998808,141768.073,142101.413,,grey
,Trial,flow.Sequence,3_53_0,2022-03-01T09:50:42.301Z,,,,1,A,2291.4330000119226,completion,,,,142097.80000001192,142092.80000001192,139784.7,139799.80000001192,139801.367,142101.413,,grey
,Frame,canvas.Frame,3_53,2022-03-01T09:50:42.301Z,,,,1,A,2296.4330000119226,,,,,142098,142097.80000001192,139784.7,139799,139801.367,142101.413,,grey
,Fixation,canvas.Screen,3_54_0_0,2022-03-01T09:50:44.625Z,,,,1,VA,2333.3800000000047,timeout,,,,144421,144418.126,142084.746,142099,142101.413,144434.793,,white
,Stimulus,canvas.Screen,3_54_0_1,2022-03-01T09:50:44.724Z,,,,1,VA,100.00200000000768,timeout,,,,144520.10000002384,144518.128,144418.126,144421.39999997616,144434.793,144534.795,,white
,Reaction,canvas.Screen,3_54_0_2,2022-03-01T09:50:44.913Z,,,,1,VA,169.90499998806627,response,,stim_detected,keydown(Space),144709.19999998808,144704.69999998808,144518.128,144520.30000001192,144534.795,144718.132,,white
,Trial,flow.Sequence,3_54_0,2022-03-01T09:50:44.913Z,,,,1,VA,2603.2869999880786,completion,,,,144709.5,144704.69999998808,142084.746,142099,142101.413,144718.132,,white
,Frame,canvas.Frame,3_54,2022-03-01T09:50:44.913Z,,,,1,VA,2608.0869999999995,,,,,144709.60000002384,144709.5,142084.746,142098.10000002384,142101.413,144718.132,,white
,Fixation,canvas.Screen,3_55_0_0,2022-03-01T09:50:46.557Z,,,,1,A,1650.0329999999958,timeout,,,,146353.5,146351.498,144701.465,144711,144718.132,146368.165,,grey
,Stimulus,canvas.Screen,3_55_0_1,2022-03-01T09:50:46.658Z,,,,1,A,100.00199999997858,timeout,,,,146454,146451.5,146351.498,146353.69999998808,146368.165,146468.167,,grey
,Reaction,canvas.Screen,3_55_0_2,2022-03-01T09:50:46.944Z,,,,1,A,267.53299998809234,response,,stim_detected,keydown(Space),146740.10000002384,146735.69999998808,146451.5,146454.30000001192,146468.167,146751.506,,grey
,Trial,flow.Sequence,3_55_0,2022-03-01T09:50:46.944Z,,,,1,A,2017.5679999880667,completion,,,,146740.5,146735.69999998808,144701.465,144710.80000001192,144718.132,146751.506,,grey
,Frame,canvas.Frame,3_55,2022-03-01T09:50:46.944Z,,,,1,A,2022.4680000238295,,,,,146740.69999998808,146740.60000002384,144701.465,144709.69999998808,144718.132,146751.506,,grey
,Fixation,canvas.Screen,3_56_0_0,2022-03-01T09:50:48.541Z,,,,0,V,1600.0320000000065,timeout,,,,148337.60000002384,148334.871,146734.839,146741.60000002384,146751.506,148351.538,,white
,Stimulus,canvas.Screen,3_56_0_1,2022-03-01T09:50:48.641Z,,,,0,V,100.00200000000768,timeout,,,,148437.30000001192,148434.873,148334.871,148337.80000001192,148351.538,148451.54,,white
,Reaction,canvas.Screen,3_56_0_2,2022-03-01T09:50:48.874Z,,,,0,V,214.15999998807092,response,,stim_detected,keydown(Space),148670.30000001192,148665.69999998808,148434.873,148437.5,148451.54,148684.878,,white
,Trial,flow.Sequence,3_56_0,2022-03-01T09:50:48.874Z,,,,0,V,1914.1939999880851,completion,,,,148670.60000002384,148665.69999998808,146734.839,146741.5,146751.506,148684.878,,white
,Frame,canvas.Frame,3_56,2022-03-01T09:50:48.874Z,,,,0,V,1919.1939999880851,,,,,148670.80000001192,148670.69999998808,146734.839,146740.69999998808,146751.506,148684.878,,white
,Fixation,canvas.Screen,3_57_0_0,2022-03-01T09:50:50.658Z,,,,1,VA,1783.369000000006,timeout,,,,150453.80000001192,150451.58,148668.211,148672.10000002384,148684.878,150468.247,,white
,Stimulus,canvas.Screen,3_57_0_1,2022-03-01T09:50:50.757Z,,,,1,VA,100.00200000000768,timeout,,,,150553.10000002384,150551.582,150451.58,150454.10000002384,150468.247,150568.249,,white
,Reaction,canvas.Screen,3_57_0_2,2022-03-01T09:50:50.980Z,,,,1,VA,203.15099997614743,response,,stim_detected,keydown(Space),150775.89999997616,150771.39999997616,150551.582,150553.30000001192,150568.249,150818.254,,white
,Trial,flow.Sequence,3_57_0,2022-03-01T09:50:50.981Z,,,,1,VA,2086.521999976161,completion,,,,150777.30000001192,150771.39999997616,148668.211,148672,148684.878,150818.254,,white
,Frame,canvas.Frame,3_57,2022-03-01T09:50:50.981Z,,,,1,VA,2092.622000000003,,,,,150777.5,150777.5,148668.211,148670.89999997616,148684.878,150818.254,,white
,Fixation,canvas.Screen,3_58_0_0,2022-03-01T09:50:52.791Z,,,,1,A,1783.369000000006,timeout,,,,152587.60000002384,152584.956,150801.587,150778.80000001192,150818.254,152601.623,,grey
,Stimulus,canvas.Screen,3_58_0_1,2022-03-01T09:50:52.891Z,,,,1,A,100.00200000000768,timeout,,,,152687.69999998808,152684.958,152584.956,152587.89999997616,152601.623,152701.625,,grey
,Reaction,canvas.Screen,3_58_0_2,2022-03-01T09:50:53.149Z,,,,1,A,238.77499997615814,response,,stim_detected,keydown(Space),152945,152940.39999997616,152684.958,152687.89999997616,152701.625,152951.63,,grey
,Trial,flow.Sequence,3_58_0,2022-03-01T09:50:53.149Z,,,,1,A,2122.145999976172,completion,,,,152945.30000001192,152940.39999997616,150801.587,150778.80000001192,150818.254,152951.63,,grey
,Frame,canvas.Frame,3_58,2022-03-01T09:50:53.149Z,,,,1,A,2127.145999976172,,,,,152945.5,152945.39999997616,150801.587,150777.69999998808,150818.254,152951.63,,grey
,Fixation,canvas.Screen,3_59_0_0,2022-03-01T09:50:55.358Z,,,,1,A,2216.710999999981,timeout,,,,155154,155151.674,152934.963,152946.60000002384,152951.63,155168.341,,grey
,Stimulus,canvas.Screen,3_59_0_1,2022-03-01T09:50:55.458Z,,,,1,A,100.00200000000768,timeout,,,,155253.69999998808,155251.676,155151.674,155154.10000002384,155168.341,155268.343,,grey
,Reaction,canvas.Screen,3_59_0_2,2022-03-01T09:50:55.712Z,,,,1,A,234.95700001192745,response,,stim_detected,keydown(Space),155507.89999997616,155503.30000001192,155251.676,155254,155268.343,155518.348,,grey
,Trial,flow.Sequence,3_59_0,2022-03-01T09:50:55.712Z,,,,1,A,2551.6700000119163,completion,,,,155508.19999998808,155503.30000001192,152934.963,152946.60000002384,152951.63,155518.348,,grey
,Frame,canvas.Frame,3_59,2022-03-01T09:50:55.712Z,,,,1,A,2556.5699999880744,,,,,155508.30000001192,155508.19999998808,152934.963,152945.60000002384,152951.63,155518.348,,grey
,Fixation,canvas.Screen,3_60_0_0,2022-03-01T09:50:57.391Z,,,,0,V,1683.3669999999984,timeout,,,,157187.19999998808,157185.048,155501.681,155509.30000001192,155518.348,157201.715,,white
,Stimulus,canvas.Screen,3_60_0_1,2022-03-01T09:50:57.491Z,,,,0,V,100.00200000000768,timeout,,,,157287.10000002384,157285.05,157185.048,157187.5,157201.715,157301.717,,white
,Reaction,canvas.Screen,3_60_0_2,2022-03-01T09:50:57.732Z,,,,0,V,222.48299998807488,response,,stim_detected,keydown(Space),157528.60000002384,157524.19999998808,157285.05,157287.30000001192,157301.717,157535.055,,white
,Trial,flow.Sequence,3_60_0,2022-03-01T09:50:57.733Z,,,,0,V,2005.851999988081,completion,,,,157529,157524.19999998808,155501.681,155509.19999998808,155518.348,157535.055,,white
,Frame,canvas.Frame,3_60,2022-03-01T09:50:57.733Z,,,,0,V,2010.7520000238437,,,,,157529.10000002384,157529.10000002384,155501.681,155508.39999997616,155518.348,157535.055,,white
,Fixation,canvas.Screen,3_61_0_0,2022-03-01T09:50:59.841Z,,,,0,V,2116.7090000000026,timeout,,,,159637.39999997616,159635.097,157518.388,157530.39999997616,157535.055,159651.764,,white
,Stimulus,canvas.Screen,3_61_0_1,2022-03-01T09:50:59.942Z,,,,0,V,100.00200000000768,timeout,,,,159737.89999997616,159735.099,159635.097,159637.5,159651.764,159751.766,,white
,Reaction,canvas.Screen,3_61_0_2,2022-03-01T09:51:00.185Z,,,,0,V,224.23399999999674,response,,stim_detected,keydown(Space),159980.89999997616,159976,159735.099,159738.10000002384,159751.766,159985.104,,white
,Trial,flow.Sequence,3_61_0,2022-03-01T09:51:00.185Z,,,,0,V,2440.945000000007,completion,,,,159981.19999998808,159976,157518.388,157530.39999997616,157535.055,159985.104,,white
,Frame,canvas.Frame,3_61,2022-03-01T09:51:00.185Z,,,,0,V,2446.144999988086,,,,,159981.30000001192,159981.19999998808,157518.388,157529.30000001192,157535.055,159985.104,,white
,Fixation,canvas.Screen,3_62_0_0,2022-03-01T09:51:02.226Z,,,,0,V,2050.0409999999974,timeout,,,,162021.5,162018.478,159968.437,159982.19999998808,159985.104,162035.145,,white
,Stimulus,canvas.Screen,3_62_0_1,2022-03-01T09:51:02.324Z,,,,0,V,100.00200000000768,timeout,,,,162120.30000001192,162118.48,162018.478,162021.80000001192,162035.145,162135.147,,white
,Reaction,canvas.Screen,3_62_0_2,2022-03-01T09:51:02.564Z,,,,0,V,220.75299997616094,response,,stim_detected,keydown(Space),162360.5,162355.89999997616,162118.48,162120.5,162135.147,162368.485,,white
,Trial,flow.Sequence,3_62_0,2022-03-01T09:51:02.565Z,,,,0,V,2370.795999976166,completion,,,,162360.80000001192,162355.89999997616,159968.437,159982.19999998808,159985.104,162368.485,,white
,Frame,canvas.Frame,3_62,2022-03-01T09:51:02.565Z,,,,0,V,2375.696000011929,,,,,162361,162360.80000001192,159968.437,159981.39999997616,159985.104,162368.485,,white
,Fixation,canvas.Screen,3_63_0_0,2022-03-01T09:51:04.275Z,,,,1,A,1716.701000000001,timeout,,,,164071.39999997616,164068.519,162351.818,162362,162368.485,164085.186,,grey
,Stimulus,canvas.Screen,3_63_0_1,2022-03-01T09:51:04.374Z,,,,1,A,100.00200000000768,timeout,,,,164169.69999998808,164168.521,164068.519,164071.5,164085.186,164185.188,,grey
,Reaction,canvas.Screen,3_63_0_2,2022-03-01T09:51:04.599Z,,,,1,A,205.61200001192628,response,,stim_detected,keydown(Space),164395.39999997616,164390.80000001192,164168.521,164169.89999997616,164185.188,164401.859,,grey
,Trial,flow.Sequence,3_63_0,2022-03-01T09:51:04.600Z,,,,1,A,2022.315000011935,completion,,,,164395.69999998808,164390.80000001192,162351.818,162361.89999997616,162368.485,164401.859,,grey
,Frame,canvas.Frame,3_63,2022-03-01T09:51:04.600Z,,,,1,A,2027.315000011935,,,,,164395.89999997616,164395.80000001192,162351.818,162361.10000002384,162368.485,164401.859,,grey
,Fixation,canvas.Screen,3_64_0_0,2022-03-01T09:51:06.425Z,,,,1,A,1833.3699999999953,timeout,,,,166220.69999998808,166218.562,164385.192,164396.89999997616,164401.859,166235.229,,grey
,Stimulus,canvas.Screen,3_64_0_1,2022-03-01T09:51:06.524Z,,,,1,A,100.00200000000768,timeout,,,,166319.89999997616,166318.564,166218.562,166220.89999997616,166235.229,166335.231,,grey
,Reaction,canvas.Screen,3_64_0_2,2022-03-01T09:51:06.823Z,,,,1,A,279.4689999880793,response,,stim_detected,keydown(Space),166618.89999997616,166614.69999998808,166318.564,166320.10000002384,166335.231,166635.237,,grey
,Trial,flow.Sequence,3_64_0,2022-03-01T09:51:06.823Z,,,,1,A,2212.8409999880823,completion,,,,166619.19999998808,166614.69999998808,164385.192,164396.80000001192,164401.859,166635.237,,grey
,Frame,canvas.Frame,3_64,2022-03-01T09:51:06.824Z,,,,1,A,2217.441000011924,,,,,166619.30000001192,166619.30000001192,164385.192,164395.89999997616,164401.859,166635.237,,grey
,Fixation,canvas.Screen,3_65_0_0,2022-03-01T09:51:09.142Z,,,,1,VA,2316.713000000018,timeout,,,,168937.60000002384,168935.283,166618.57,166620.5,166635.237,168951.95,,white
,Stimulus,canvas.Screen,3_65_0_1,2022-03-01T09:51:09.242Z,,,,1,VA,100.00199999997858,timeout,,,,169037.80000001192,169035.285,168935.283,168937.89999997616,168951.95,169051.952,,white
,Reaction,canvas.Screen,3_65_0_2,2022-03-01T09:51:09.421Z,,,,1,VA,160.54800000000978,response,,stim_detected,keydown(Space),169217,169212.5,169035.285,169037.89999997616,169051.952,169218.622,,white
,Trial,flow.Sequence,3_65_0,2022-03-01T09:51:09.422Z,,,,1,VA,2577.2630000000063,completion,,,,169217.30000001192,169212.5,166618.57,166620.30000001192,166635.237,169218.622,,white
,Frame,canvas.Frame,3_65,2022-03-01T09:51:09.422Z,,,,1,VA,2582.063000011927,,,,,169217.5,169217.30000001192,166618.57,166619.5,166635.237,169218.622,,white
,Fixation,canvas.Screen,3_66_0_0,2022-03-01T09:51:11.159Z,,,,1,A,1750.0350000000035,timeout,,,,170954.5,170951.99,169201.955,169218.5,169218.622,170968.657,,grey
,Stimulus,canvas.Screen,3_66_0_1,2022-03-01T09:51:11.258Z,,,,1,A,100.00200000000768,timeout,,,,171053.60000002384,171051.992,170951.99,170954.69999998808,170968.657,171068.659,,grey
,Reaction,canvas.Screen,3_66_0_2,2022-03-01T09:51:11.524Z,,,,1,A,246.74099997614394,response,,stim_detected,keydown(Space),171320,171315.39999997616,171051.992,171053.69999998808,171068.659,171335.331,,grey
,Trial,flow.Sequence,3_66_0,2022-03-01T09:51:11.525Z,,,,1,A,2096.777999976155,completion,,,,171320.30000001192,171315.39999997616,169201.955,169218.5,169218.622,171335.331,,grey
,Frame,canvas.Frame,3_66,2022-03-01T09:51:11.525Z,,,,1,A,2101.777999976155,,,,,171320.5,171320.39999997616,169201.955,169217.60000002384,169218.622,171335.331,,grey
,Fixation,canvas.Screen,3_67_0_0,2022-03-01T09:51:13.658Z,,,,1,A,2133.3759999999893,timeout,,,,173453.89999997616,173452.04,171318.664,171321.5,171335.331,173468.707,,grey
,Stimulus,canvas.Screen,3_67_0_1,2022-03-01T09:51:13.758Z,,,,1,A,100.00200000000768,timeout,,,,173554,173552.042,173452.04,173454.19999998808,173468.707,173568.709,,grey
,Reaction,canvas.Screen,3_67_0_2,2022-03-01T09:51:13.998Z,,,,1,A,220.59100001191837,response,,stim_detected,keydown(Space),173793.69999998808,173789.30000001192,173552.042,173554.19999998808,173568.709,173802.047,,grey
,Trial,flow.Sequence,3_67_0,2022-03-01T09:51:13.998Z,,,,1,A,2453.9690000119153,completion,,,,173794,173789.30000001192,171318.664,171321.39999997616,171335.331,173802.047,,grey
,Frame,canvas.Frame,3_67,2022-03-01T09:51:13.999Z,,,,1,A,2458.7690000238363,,,,,173794.19999998808,173794.10000002384,171318.664,171320.60000002384,171335.331,173802.047,,grey
,Fixation,canvas.Screen,3_68_0_0,2022-03-01T09:51:15.593Z,,,,0,V,1600.0320000000065,timeout,,,,175388.10000002384,175385.412,173785.38,173795.19999998808,173802.047,175402.079,,white
,Stimulus,canvas.Screen,3_68_0_1,2022-03-01T09:51:15.692Z,,,,0,V,100.00200000000768,timeout,,,,175487.60000002384,175485.414,175385.412,175388.30000001192,175402.079,175502.081,,white
,Reaction,canvas.Screen,3_68_0_2,2022-03-01T09:51:15.931Z,,,,0,V,220.01900002383627,response,,stim_detected,keydown(Space),175726.60000002384,175722.10000002384,175485.414,175487.80000001192,175502.081,175768.753,,white
,Trial,flow.Sequence,3_68_0,2022-03-01T09:51:15.931Z,,,,0,V,1920.0530000238505,completion,,,,175726.80000001192,175722.10000002384,173785.38,173795.19999998808,173802.047,175768.753,,white
,Frame,canvas.Frame,3_68,2022-03-01T09:51:15.931Z,,,,0,V,1924.8529999761668,,,,,175727,175726.89999997616,173785.38,173794.30000001192,173802.047,175768.753,,white
,Fixation,canvas.Screen,3_69_0_0,2022-03-01T09:51:17.759Z,,,,1,A,1800.0359999999928,timeout,,,,177554.39999997616,177552.122,175752.086,175729.10000002384,175768.753,177568.789,,grey
,Stimulus,canvas.Screen,3_69_0_1,2022-03-01T09:51:17.859Z,,,,1,A,100.00200000000768,timeout,,,,177654.19999998808,177652.124,177552.122,177554.60000002384,177568.789,177668.791,,grey
,Reaction,canvas.Screen,3_69_0_2,2022-03-01T09:51:18.085Z,,,,1,A,207.20900000000256,response,,stim_detected,keydown(Space),177880.5,177876,177652.124,177654.39999997616,177668.791,177885.462,,grey
,Trial,flow.Sequence,3_69_0,2022-03-01T09:51:18.085Z,,,,1,A,2107.247000000003,completion,,,,177880.80000001192,177876,175752.086,175729.10000002384,175768.753,177885.462,,grey
,Frame,canvas.Frame,3_69,2022-03-01T09:51:18.086Z,,,,1,A,2112.047000011924,,,,,177881.10000002384,177880.80000001192,175752.086,175728.10000002384,175768.753,177885.462,,grey
,Fixation,canvas.Screen,3_70_0_0,2022-03-01T09:51:19.759Z,,,,0,V,1683.3669999999984,timeout,,,,179554.30000001192,179552.162,177868.795,177882.19999998808,177885.462,179568.829,,white
,Stimulus,canvas.Screen,3_70_0_1,2022-03-01T09:51:19.858Z,,,,0,V,100.00200000000768,timeout,,,,179653.39999997616,179652.164,179552.162,179554.60000002384,179568.829,179668.831,,white
,Reaction,canvas.Screen,3_70_0_2,2022-03-01T09:51:20.109Z,,,,0,V,231.06899997615255,response,,stim_detected,keydown(Space),179904.30000001192,179899.89999997616,179652.164,179653.60000002384,179668.831,179918.836,,white
,Trial,flow.Sequence,3_70_0,2022-03-01T09:51:20.109Z,,,,0,V,2014.4379999761586,completion,,,,179904.60000002384,179899.89999997616,177868.795,177882,177885.462,179918.836,,white
,Frame,canvas.Frame,3_70,2022-03-01T09:51:20.109Z,,,,0,V,2019.1380000238423,,,,,179904.80000001192,179904.60000002384,177868.795,177881.10000002384,177885.462,179918.836,,white
,Fixation,canvas.Screen,3_71_0_0,2022-03-01T09:51:21.676Z,,,,1,VA,1566.698000000004,timeout,,,,181471.30000001192,181468.867,179902.169,179905.80000001192,179918.836,181485.534,,white
,Stimulus,canvas.Screen,3_71_0_1,2022-03-01T09:51:21.776Z,,,,1,VA,100.00199999997858,timeout,,,,181571.69999998808,181568.869,181468.867,181471.5,181485.534,181585.536,,white
,Reaction,canvas.Screen,3_71_0_2,2022-03-01T09:51:22.035Z,,,,1,VA,240.26400001192815,response,,stim_detected,keydown(Space),181830.80000001192,181825.80000001192,181568.869,181571.89999997616,181585.536,181835.541,,white
,Trial,flow.Sequence,3_71_0,2022-03-01T09:51:22.036Z,,,,1,VA,1906.9640000119107,completion,,,,181831.10000002384,181825.80000001192,179902.169,179905.80000001192,179918.836,181835.541,,white
,Frame,canvas.Frame,3_71,2022-03-01T09:51:22.036Z,,,,1,VA,1912.3639999880688,,,,,181831.30000001192,181831.19999998808,179902.169,179904.80000001192,179918.836,181835.541,,white
,Fixation,canvas.Screen,3_72_0_0,2022-03-01T09:51:24.158Z,,,,0,V,2133.3759999999893,timeout,,,,183953.39999997616,183952.25,181818.874,181832.39999997616,181835.541,183968.917,,white
,Stimulus,canvas.Screen,3_72_0_1,2022-03-01T09:51:24.258Z,,,,0,V,100.00200000000768,timeout,,,,184053.80000001192,184052.252,183952.25,183953.60000002384,183968.917,184068.919,,white
,Reaction,canvas.Screen,3_72_0_2,2022-03-01T09:51:24.484Z,,,,0,V,205.68100002384745,response,,stim_detected,keydown(Space),184278.89999997616,184274.60000002384,184052.252,184054,184068.919,184285.59,,white
,Trial,flow.Sequence,3_72_0,2022-03-01T09:51:24.484Z,,,,0,V,2439.0590000238444,completion,,,,184279.10000002384,184274.60000002384,181818.874,181832.30000001192,181835.541,184285.59,,white
,Frame,canvas.Frame,3_72,2022-03-01T09:51:24.484Z,,,,0,V,2443.6589999880816,,,,,184279.39999997616,184279.19999998808,181818.874,181831.39999997616,181835.541,184285.59,,white
,Fixation,canvas.Screen,3_73_0_0,2022-03-01T09:51:26.010Z,,,,0,V,1533.3640000000014,timeout,,,,185805,185802.287,184268.923,184281.60000002384,184285.59,185818.954,,white
,Stimulus,canvas.Screen,3_73_0_1,2022-03-01T09:51:26.109Z,,,,0,V,100.00200000000768,timeout,,,,185904.69999998808,185902.289,185802.287,185805.39999997616,185818.954,185918.956,,white
,Reaction,canvas.Screen,3_73_0_2,2022-03-01T09:51:26.374Z,,,,0,V,245.64400002383627,response,,stim_detected,keydown(Space),186169,186164.60000002384,185902.289,185904.89999997616,185918.956,186185.628,,white
,Trial,flow.Sequence,3_73_0,2022-03-01T09:51:26.374Z,,,,0,V,1879.0100000238454,completion,,,,186169.30000001192,186164.60000002384,184268.923,184281.5,184285.59,186185.628,,white
,Frame,canvas.Frame,3_73,2022-03-01T09:51:26.374Z,,,,0,V,1883.8099999761616,,,,,186169.5,186169.39999997616,184268.923,184279.39999997616,184285.59,186185.628,,white
,Fixation,canvas.Screen,3_74_0_0,2022-03-01T09:51:27.943Z,,,,1,VA,1566.698000000004,timeout,,,,187738.19999998808,187735.659,186168.961,186170.60000002384,186185.628,187752.326,,white
,Stimulus,canvas.Screen,3_74_0_1,2022-03-01T09:51:28.042Z,,,,1,VA,100.00200000000768,timeout,,,,187837.39999997616,187835.661,187735.659,187738.39999997616,187752.326,187852.328,,white
,Reaction,canvas.Screen,3_74_0_2,2022-03-01T09:51:28.261Z,,,,1,VA,199.17199999999139,response,,stim_detected,keydown(Space),188056.10000002384,188051.5,187835.661,187837.69999998808,187852.328,188068.999,,white
,Trial,flow.Sequence,3_74_0,2022-03-01T09:51:28.261Z,,,,1,VA,1865.872000000003,completion,,,,188056.39999997616,188051.5,186168.961,186170.5,186185.628,188068.999,,white
,Frame,canvas.Frame,3_74,2022-03-01T09:51:28.261Z,,,,1,VA,1870.872000000003,,,,,188056.60000002384,188056.5,186168.961,186169.60000002384,186185.628,188068.999,,white
,Fixation,canvas.Screen,3_75_0_0,2022-03-01T09:51:30.509Z,,,,1,VA,2250.0449999999837,timeout,,,,190304.39999997616,190302.377,188052.332,188057.60000002384,188068.999,190319.044,,white
,Stimulus,canvas.Screen,3_75_0_1,2022-03-01T09:51:30.609Z,,,,1,VA,100.00200000000768,timeout,,,,190404.5,190402.379,190302.377,190304.60000002384,190319.044,190419.046,,white
,Reaction,canvas.Screen,3_75_0_2,2022-03-01T09:51:30.769Z,,,,1,VA,140.25400001191883,response,,stim_detected,keydown(Space),190563.69999998808,190559.30000001192,190402.379,190404.69999998808,190419.046,190569.049,,white
,Trial,flow.Sequence,3_75_0,2022-03-01T09:51:30.769Z,,,,1,VA,2490.30100001191,completion,,,,190564,190559.30000001192,188052.332,188057.60000002384,188068.999,190569.049,,white
,Frame,canvas.Frame,3_75,2022-03-01T09:51:30.769Z,,,,1,VA,2495.0009999999893,,,,,190564.19999998808,190564,188052.332,188056.69999998808,188068.999,190569.049,,white
,Fixation,canvas.Screen,3_76_0_0,2022-03-01T09:51:32.560Z,,,,0,V,1800.0359999999928,timeout,,,,192355,192352.418,190552.382,190565.30000001192,190569.049,192369.085,,white
,Stimulus,canvas.Screen,3_76_0_1,2022-03-01T09:51:32.660Z,,,,0,V,100.00200000000768,timeout,,,,192454.69999998808,192452.42,192352.418,192355.19999998808,192369.085,192469.087,,white
,Reaction,canvas.Screen,3_76_0_2,2022-03-01T09:51:32.891Z,,,,0,V,212.11299998807954,response,,stim_detected,keydown(Space),192686.10000002384,192681.19999998808,192452.42,192454.80000001192,192469.087,192702.425,,white
,Trial,flow.Sequence,3_76_0,2022-03-01T09:51:32.891Z,,,,0,V,2112.15099998808,completion,,,,192686.39999997616,192681.19999998808,190552.382,190565.19999998808,190569.049,192702.425,,white
,Frame,canvas.Frame,3_76,2022-03-01T09:51:32.892Z,,,,0,V,2117.451000000001,,,,,192686.5,192686.5,190552.382,190564.30000001192,190569.049,192702.425,,white
,Fixation,canvas.Screen,3_77_0_0,2022-03-01T09:51:35.076Z,,,,1,VA,2183.3770000000077,timeout,,,,194871.30000001192,194869.135,192685.758,192687.60000002384,192702.425,194885.802,,white
,Stimulus,canvas.Screen,3_77_0_1,2022-03-01T09:51:35.176Z,,,,1,VA,100.00200000000768,timeout,,,,194971.19999998808,194969.137,194869.135,194871.60000002384,194885.802,194985.804,,white
,Reaction,canvas.Screen,3_77_0_2,2022-03-01T09:51:35.342Z,,,,1,VA,146.29600002383813,response,,stim_detected,keydown(Space),195136.60000002384,195132.10000002384,194969.137,194971.30000001192,194985.804,195152.474,,white
,Trial,flow.Sequence,3_77_0,2022-03-01T09:51:35.342Z,,,,1,VA,2429.6750000238535,completion,,,,195136.89999997616,195132.10000002384,192685.758,192687.5,192702.425,195152.474,,white
,Frame,canvas.Frame,3_77,2022-03-01T09:51:35.342Z,,,,1,VA,2434.5750000000116,,,,,195137.10000002384,195137,192685.758,192686.60000002384,192702.425,195152.474,,white
,Fixation,canvas.Screen,3_78_0_0,2022-03-01T09:51:36.927Z,,,,1,VA,1583.3650000000198,timeout,,,,196721.80000001192,196719.172,195135.807,195138.10000002384,195152.474,196735.839,,white
,Stimulus,canvas.Screen,3_78_0_1,2022-03-01T09:51:37.027Z,,,,1,VA,100.00199999997858,timeout,,,,196821.60000002384,196819.174,196719.172,196722,196735.839,196835.841,,white
,Reaction,canvas.Screen,3_78_0_2,2022-03-01T09:51:37.294Z,,,,1,VA,249.1590000000142,response,,stim_detected,keydown(Space),197089.39999997616,197085,196819.174,196821.89999997616,196835.841,197102.513,,white
,Trial,flow.Sequence,3_78_0,2022-03-01T09:51:37.295Z,,,,1,VA,1932.5260000000126,completion,,,,197089.69999998808,197085,195135.807,195138.10000002384,195152.474,197102.513,,white
,Frame,canvas.Frame,3_78,2022-03-01T09:51:37.295Z,,,,1,VA,1937.3260000119335,,,,,197089.89999997616,197089.80000001192,195135.807,195137.19999998808,195152.474,197102.513,,white
,Fixation,canvas.Screen,3_79_0_0,2022-03-01T09:51:39.760Z,,,,0,V,2466.715999999986,timeout,,,,199555.10000002384,199552.562,197085.846,197091.19999998808,197102.513,199569.229,,white
,Stimulus,canvas.Screen,3_79_0_1,2022-03-01T09:51:39.860Z,,,,0,V,100.00200000000768,timeout,,,,199654.89999997616,199652.564,199552.562,199555.30000001192,199569.229,199669.231,,white
,Reaction,canvas.Screen,3_79_0_2,2022-03-01T09:51:40.058Z,,,,0,V,178.66899997615837,response,,stim_detected,keydown(Space),199852.30000001192,199847.89999997616,199652.564,199655,199669.231,199869.235,,white
,Trial,flow.Sequence,3_79_0,2022-03-01T09:51:40.058Z,,,,0,V,2745.386999976152,completion,,,,199852.69999998808,199847.89999997616,197085.846,197091.10000002384,197102.513,199869.235,,white
,Frame,canvas.Frame,3_79,2022-03-01T09:51:40.058Z,,,,0,V,2750.186999988073,,,,,199852.80000001192,199852.69999998808,197085.846,197090,197102.513,199869.235,,white
,Fixation,canvas.Screen,3_80_0_0,2022-03-01T09:51:41.961Z,,,,1,VA,1900.0380000000005,timeout,,,,201755.80000001192,201752.606,199852.568,199855.60000002384,199869.235,201769.273,,white
,Stimulus,canvas.Screen,3_80_0_1,2022-03-01T09:51:42.061Z,,,,1,VA,100.00200000000768,timeout,,,,201855.39999997616,201852.608,201752.606,201756.60000002384,201769.273,201869.275,,white
,Reaction,canvas.Screen,3_80_0_2,2022-03-01T09:51:42.284Z,,,,1,VA,204.4249999880849,response,,stim_detected,keydown(Space),202078.39999997616,202073.69999998808,201852.608,201855.5,201869.275,202085.946,,white
,Trial,flow.Sequence,3_80_0,2022-03-01T09:51:42.284Z,,,,1,VA,2204.464999988093,completion,,,,202078.69999998808,202073.69999998808,199852.568,199855.39999997616,199869.235,202085.946,,white
,Frame,canvas.Frame,3_80,2022-03-01T09:51:42.284Z,,,,1,VA,2209.565000011935,,,,,202078.89999997616,202078.80000001192,199852.568,199853,199869.235,202085.946,,white
,Fixation,canvas.Screen,3_81_0_0,2022-03-01T09:51:44.527Z,,,,1,VA,2250.045000000013,timeout,,,,204321.60000002384,204319.324,202069.279,202080,202085.946,204335.991,,white
,Stimulus,canvas.Screen,3_81_0_1,2022-03-01T09:51:44.627Z,,,,1,VA,100.00199999997858,timeout,,,,204421.80000001192,204419.326,204319.324,204321.80000001192,204335.991,204435.993,,white
,Reaction,canvas.Screen,3_81_0_2,2022-03-01T09:51:44.962Z,,,,1,VA,313.6070000238542,response,,stim_detected,keydown(Space),204756.89999997616,204749.60000002384,204419.326,204422,204435.993,204769.333,,white
,Trial,flow.Sequence,3_81_0,2022-03-01T09:51:44.962Z,,,,1,VA,2663.6540000238456,completion,,,,204757.19999998808,204749.60000002384,202069.279,202079.89999997616,202085.946,204769.333,,white
,Frame,canvas.Frame,3_81,2022-03-01T09:51:44.963Z,,,,1,VA,2671.253999988083,,,,,204757.30000001192,204757.19999998808,202069.279,202079,202085.946,204769.333,,white
,Fixation,canvas.Screen,3_82_0_0,2022-03-01T09:51:47.427Z,,,,1,A,2466.715999999986,timeout,,,,207221.5,207219.382,204752.666,204758.19999998808,204769.333,207236.049,,grey
,Stimulus,canvas.Screen,3_82_0_1,2022-03-01T09:51:47.527Z,,,,1,A,100.00200000000768,timeout,,,,207321.69999998808,207319.384,207219.382,207221.69999998808,207236.049,207336.051,,grey
,Reaction,canvas.Screen,3_82_0_2,2022-03-01T09:51:47.767Z,,,,1,A,221.5490000238351,response,,stim_detected,keydown(Space),207562,207557.60000002384,207319.384,207321.89999997616,207336.051,207569.389,,grey
,Trial,flow.Sequence,3_82_0,2022-03-01T09:51:47.768Z,,,,1,A,2788.2670000238286,completion,,,,207562.30000001192,207557.60000002384,204752.666,204758.10000002384,204769.333,207569.389,,grey
,Frame,canvas.Frame,3_82,2022-03-01T09:51:47.768Z,,,,1,A,2793.066999976145,,,,,207562.5,207562.39999997616,204752.666,204757.39999997616,204769.333,207569.389,,grey
,Fixation,canvas.Screen,3_83_0_0,2022-03-01T09:51:49.811Z,,,,1,A,2050.0409999999974,timeout,,,,209605.5,209602.763,207552.722,207563.80000001192,207569.389,209619.43,,grey
,Stimulus,canvas.Screen,3_83_0_1,2022-03-01T09:51:49.911Z,,,,1,A,100.00200000000768,timeout,,,,209705.60000002384,209702.765,209602.763,209605.80000001192,209619.43,209719.432,,grey
,Reaction,canvas.Screen,3_83_0_2,2022-03-01T09:51:50.489Z,,,,1,A,559.9679999761574,response,,stim_detected,keydown(Space),210283.89999997616,210279.39999997616,209702.765,209705.80000001192,209719.432,210286.11,,grey
,Trial,flow.Sequence,3_83_0,2022-03-01T09:51:50.490Z,,,,1,A,2710.0109999761626,completion,,,,210284.19999998808,210279.39999997616,207552.722,207563.69999998808,207569.389,210286.11,,grey
,Frame,canvas.Frame,3_83,2022-03-01T09:51:50.490Z,,,,1,A,2714.8109999880835,,,,,210284.30000001192,210284.19999998808,207552.722,207562.69999998808,207569.389,210286.11,,grey
,Fixation,canvas.Screen,3_84_0_0,2022-03-01T09:51:52.295Z,,,,0,V,1816.7030000000086,timeout,,,,212088.69999998808,212086.146,210269.443,210285.30000001192,210286.11,212102.813,,white
,Stimulus,canvas.Screen,3_84_0_1,2022-03-01T09:51:52.415Z,,,,0,V,100.00200000000768,timeout,,,,212208.10000002384,212186.148,212086.146,212088.89999997616,212102.813,212202.815,,white
,Reaction,canvas.Screen,3_84_0_2,2022-03-01T09:51:52.813Z,,,,0,V,398.38499998807674,response,,stim_detected,keydown(Space),212605.80000001192,212601.19999998808,212186.148,212208.30000001192,212202.815,212619.49,,white
,Trial,flow.Sequence,3_84_0,2022-03-01T09:51:52.813Z,,,,0,V,2315.089999988093,completion,,,,212606.10000002384,212601.19999998808,210269.443,210285.19999998808,210286.11,212619.49,,white
,Frame,canvas.Frame,3_84,2022-03-01T09:51:52.813Z,,,,0,V,2320.089999988093,,,,,212606.30000001192,212606.19999998808,210269.443,210284.39999997616,210286.11,212619.49,,white
,Fixation,canvas.Screen,3_85_0_0,2022-03-01T09:51:55.113Z,,,,1,VA,2300.046000000002,timeout,,,,214904.60000002384,214902.869,212602.823,212607.30000001192,212619.49,214919.536,,white
,Stimulus,canvas.Screen,3_85_0_1,2022-03-01T09:51:55.214Z,,,,1,VA,100.00200000000768,timeout,,,,215005.89999997616,215002.871,214902.869,214904.69999998808,214919.536,215019.538,,white
,Reaction,canvas.Screen,3_85_0_2,2022-03-01T09:51:55.408Z,,,,1,VA,175.5620000238414,response,,stim_detected,keydown(Space),215199.80000001192,215195.10000002384,215002.871,215006,215019.538,215219.542,,white
,Trial,flow.Sequence,3_85_0,2022-03-01T09:51:55.408Z,,,,1,VA,2575.610000023851,completion,,,,215200.19999998808,215195.10000002384,212602.823,212607.19999998808,212619.49,215219.542,,white
,Frame,canvas.Frame,3_85,2022-03-01T09:51:55.409Z,,,,1,VA,2580.8100000119302,,,,,215200.5,215200.30000001192,212602.823,212606.39999997616,212619.49,215219.542,,white
,Fixation,canvas.Screen,3_86_0_0,2022-03-01T09:51:57.130Z,,,,1,A,1716.701000000001,timeout,,,,216921.19999998808,216919.576,215202.875,215201.5,215219.542,216936.243,,grey
,Stimulus,canvas.Screen,3_86_0_1,2022-03-01T09:51:57.231Z,,,,1,A,100.00200000000768,timeout,,,,217022,217019.578,216919.576,216921.30000001192,216936.243,217036.245,,grey
,Reaction,canvas.Screen,3_86_0_2,2022-03-01T09:51:57.536Z,,,,1,A,286.6549999761628,response,,stim_detected,keydown(Space),217327.19999998808,217322.89999997616,217019.578,217022.30000001192,217036.245,217336.251,,grey
,Trial,flow.Sequence,3_86_0,2022-03-01T09:51:57.537Z,,,,1,A,2103.3579999761714,completion,,,,217327.60000002384,217322.89999997616,215202.875,215201.39999997616,215219.542,217336.251,,grey
,Frame,canvas.Frame,3_86,2022-03-01T09:51:57.537Z,,,,1,A,2108.058000023855,,,,,217327.80000001192,217327.60000002384,215202.875,215200.60000002384,215219.542,217336.251,,grey
,Fixation,canvas.Screen,3_87_0_0,2022-03-01T09:51:59.415Z,,,,1,A,1883.3710000000137,timeout,,,,219204.89999997616,219202.955,217319.584,217328.80000001192,217336.251,219219.622,,grey
,Stimulus,canvas.Screen,3_87_0_1,2022-03-01T09:51:59.515Z,,,,1,A,100.00200000000768,timeout,,,,219305.5,219302.957,219202.955,219205.10000002384,219219.622,219319.624,,grey
,Reaction,canvas.Screen,3_87_0_2,2022-03-01T09:52:00.038Z,,,,1,A,504.1760000119102,response,,stim_detected,keydown(Space),219828.19999998808,219823.80000001192,219302.957,219305.69999998808,219319.624,219836.301,,grey
,Trial,flow.Sequence,3_87_0,2022-03-01T09:52:00.038Z,,,,1,A,2487.5490000119316,completion,,,,219828.30000001192,219823.80000001192,217319.584,217328.69999998808,217336.251,219836.301,,grey
,Frame,canvas.Frame,3_87,2022-03-01T09:52:00.038Z,,,,1,A,2492.148999976169,,,,,219828.39999997616,219828.39999997616,217319.584,217327.89999997616,217336.251,219836.301,,grey
,Fixation,canvas.Screen,3_88_0_0,2022-03-01T09:52:02.383Z,,,,1,A,2350.0469999999914,timeout,,,,222172,222169.681,219819.634,219829.30000001192,219836.301,222186.348,,grey
,Stimulus,canvas.Screen,3_88_0_1,2022-03-01T09:52:02.483Z,,,,1,A,100.00200000000768,timeout,,,,222272.19999998808,222269.683,222169.681,222172.30000001192,222186.348,222286.35,,grey
,Reaction,canvas.Screen,3_88_0_2,2022-03-01T09:52:02.769Z,,,,1,A,267.25000002383604,response,,stim_detected,keydown(Space),222558.39999997616,222553.60000002384,222269.683,222272.5,222286.35,222569.689,,grey
,Trial,flow.Sequence,3_88_0,2022-03-01T09:52:02.769Z,,,,1,A,2717.299000023835,completion,,,,222558.69999998808,222553.60000002384,219819.634,219829.19999998808,219836.301,222569.689,,grey
,Frame,canvas.Frame,3_88,2022-03-01T09:52:02.770Z,,,,1,A,2722.499000011914,,,,,222558.89999997616,222558.80000001192,219819.634,219828.5,219836.301,222569.689,,grey
,Fixation,canvas.Screen,3_89_0_0,2022-03-01T09:52:05.066Z,,,,1,A,2300.045999999973,timeout,,,,224854.89999997616,224853.068,222553.022,222560,222569.689,224869.735,,grey
,Stimulus,canvas.Screen,3_89_0_1,2022-03-01T09:52:05.167Z,,,,1,A,100.00200000000768,timeout,,,,224955.80000001192,224953.07,224853.068,224855,224869.735,224969.737,,grey
,Reaction,canvas.Screen,3_89_0_2,2022-03-01T09:52:05.461Z,,,,1,A,275.7630000000063,response,,stim_detected,keydown(Space),225250.10000002384,225245.5,224953.07,224956,224969.737,225253.076,,grey
,Trial,flow.Sequence,3_89_0,2022-03-01T09:52:05.462Z,,,,1,A,2675.810999999987,completion,,,,225250.30000001192,225245.5,222553.022,222559.89999997616,222569.689,225253.076,,grey
,Frame,canvas.Frame,3_89,2022-03-01T09:52:05.462Z,,,,1,A,2680.810999999987,,,,,225250.60000002384,225250.5,222553.022,222559,222569.689,225253.076,,grey
,Fixation,canvas.Screen,3_90_0_0,2022-03-01T09:52:07.733Z,,,,1,VA,2283.3789999999863,timeout,,,,227521.39999997616,227519.788,225236.409,225251.80000001192,225253.076,227536.455,,white
,Stimulus,canvas.Screen,3_90_0_1,2022-03-01T09:52:07.834Z,,,,1,VA,100.00200000000768,timeout,,,,227622.10000002384,227619.79,227519.788,227521.60000002384,227536.455,227636.457,,white
,Reaction,canvas.Screen,3_90_0_2,2022-03-01T09:52:08.007Z,,,,1,VA,153.94299997616326,response,,stim_detected,keydown(Space),227794.69999998808,227790.39999997616,227619.79,227622.30000001192,227636.457,227803.127,,white
,Trial,flow.Sequence,3_90_0,2022-03-01T09:52:08.007Z,,,,1,VA,2537.323999976157,completion,,,,227795.19999998808,227790.39999997616,225236.409,225251.80000001192,225253.076,227803.127,,white
,Frame,canvas.Frame,3_90,2022-03-01T09:52:08.007Z,,,,1,VA,2542.123999988078,,,,,227795.30000001192,227795.19999998808,225236.409,225250.69999998808,225253.076,227803.127,,white
,Fixation,canvas.Screen,3_91_0_0,2022-03-01T09:52:10.433Z,,,,0,V,2433.3819999999832,timeout,,,,230221,230219.842,227786.46,227796.39999997616,227803.127,230236.509,,white
,Stimulus,canvas.Screen,3_91_0_1,2022-03-01T09:52:10.535Z,,,,0,V,100.00200000000768,timeout,,,,230322.30000001192,230319.844,230219.842,230221.19999998808,230236.509,230336.511,,white
,Reaction,canvas.Screen,3_91_0_2,2022-03-01T09:52:10.775Z,,,,0,V,219.4890000000014,response,,stim_detected,keydown(Space),230562.80000001192,230556,230319.844,230322.39999997616,230336.511,230569.849,,white
,Trial,flow.Sequence,3_91_0,2022-03-01T09:52:10.776Z,,,,0,V,2752.8729999999923,completion,,,,230563.10000002384,230556,227786.46,227796.30000001192,227803.127,230569.849,,white
,Frame,canvas.Frame,3_91,2022-03-01T09:52:10.776Z,,,,0,V,2760.0729999880714,,,,,230563.19999998808,230563.19999998808,227786.46,227795.39999997616,227803.127,230569.849,,white
,Fixation,canvas.Screen,3_92_0_0,2022-03-01T09:52:13.168Z,,,,0,V,2400.04800000001,timeout,,,,232954.89999997616,232953.23,230553.182,230564,230569.849,232969.897,,white
,Stimulus,canvas.Screen,3_92_0_1,2022-03-01T09:52:13.269Z,,,,0,V,100.00200000000768,timeout,,,,233055.60000002384,233053.232,232953.23,232955.10000002384,232969.897,233069.899,,white
,Reaction,canvas.Screen,3_92_0_2,2022-03-01T09:52:13.536Z,,,,0,V,249.1009999999951,response,,stim_detected,keydown(Space),233322.5,233319,233053.232,233055.89999997616,233069.899,233336.571,,white
,Trial,flow.Sequence,3_92_0,2022-03-01T09:52:13.536Z,,,,0,V,2749.1510000000126,completion,,,,233322.69999998808,233319,230553.182,230564,230569.849,233336.571,,white
,Frame,canvas.Frame,3_92,2022-03-01T09:52:13.536Z,,,,0,V,2752.9510000119335,,,,,233322.80000001192,233322.80000001192,230553.182,230563.30000001192,230569.849,233336.571,,white
,Fixation,canvas.Screen,3_93_0_0,2022-03-01T09:52:15.819Z,,,,1,VA,2283.3790000000154,timeout,,,,235605.30000001192,235603.283,233319.904,233323.60000002384,233336.571,235619.95,,white
,Stimulus,canvas.Screen,3_93_0_1,2022-03-01T09:52:15.920Z,,,,1,VA,100.00199999997858,timeout,,,,235706.30000001192,235703.285,235603.283,235605.5,235619.95,235719.952,,white
,Reaction,canvas.Screen,3_93_0_2,2022-03-01T09:52:16.105Z,,,,1,VA,166.94799997616792,response,,stim_detected,keydown(Space),235891.89999997616,235886.89999997616,235703.285,235706.60000002384,235719.952,235903.289,,white
,Trial,flow.Sequence,3_93_0,2022-03-01T09:52:16.106Z,,,,1,VA,2550.328999976162,completion,,,,235892.30000001192,235886.89999997616,233319.904,233323.5,233336.571,235903.289,,white
,Frame,canvas.Frame,3_93,2022-03-01T09:52:16.106Z,,,,1,VA,2555.7290000119247,,,,,235892.5,235892.30000001192,233319.904,233322.89999997616,233336.571,235903.289,,white
,Fixation,canvas.Screen,3_94_0_0,2022-03-01T09:52:17.870Z,,,,1,VA,1766.7020000000193,timeout,,,,237656,237653.324,235886.622,235893.80000001192,235903.289,237669.991,,white
,Stimulus,canvas.Screen,3_94_0_1,2022-03-01T09:52:17.970Z,,,,1,VA,100.00199999997858,timeout,,,,237756.60000002384,237753.326,237653.324,237656.30000001192,237669.991,237769.993,,white
,Reaction,canvas.Screen,3_94_0_2,2022-03-01T09:52:18.189Z,,,,1,VA,200.7069999880914,response,,stim_detected,keydown(Space),237975,237970.69999998808,237753.326,237756.80000001192,237769.993,237986.664,,white
,Trial,flow.Sequence,3_94_0,2022-03-01T09:52:18.189Z,,,,1,VA,2067.4109999880893,completion,,,,237975.30000001192,237970.69999998808,235886.622,235893.69999998808,235903.289,237986.664,,white
,Frame,canvas.Frame,3_94,2022-03-01T09:52:18.189Z,,,,1,VA,2072.1109999761684,,,,,237975.5,237975.39999997616,235886.622,235892.60000002384,235903.289,237986.664,,white
,Fixation,canvas.Screen,3_95_0_0,2022-03-01T09:52:20.019Z,,,,1,A,1833.3700000000244,timeout,,,,239805,239803.367,237969.997,237976.60000002384,237986.664,239820.034,,grey
,Stimulus,canvas.Screen,3_95_0_1,2022-03-01T09:52:20.120Z,,,,1,A,100.00199999997858,timeout,,,,239905.80000001192,239903.369,239803.367,239805.30000001192,239820.034,239920.036,,grey
,Reaction,canvas.Screen,3_95_0_2,2022-03-01T09:52:20.639Z,,,,1,A,500.6639999880863,response,,stim_detected,keydown(Space),240424.89999997616,240420.69999998808,239903.369,239906,239920.036,240436.713,,grey
,Trial,flow.Sequence,3_95_0,2022-03-01T09:52:20.639Z,,,,1,A,2434.0359999880893,completion,,,,240425.5,240420.69999998808,237969.997,237976.5,237986.664,240436.713,,grey
,Frame,canvas.Frame,3_95,2022-03-01T09:52:20.640Z,,,,1,A,2438.8360000000102,,,,,240425.60000002384,240425.5,237969.997,237975.69999998808,237986.664,240436.713,,grey
,Fixation,canvas.Screen,3_96_0_0,2022-03-01T09:52:23.103Z,,,,0,V,2466.716000000015,timeout,,,,242888.80000001192,242886.762,240420.046,240426.69999998808,240436.713,242903.429,,white
,Stimulus,canvas.Screen,3_96_0_1,2022-03-01T09:52:23.203Z,,,,0,V,100.00200000000768,timeout,,,,242989,242986.764,242886.762,242889.10000002384,242903.429,243003.431,,white
,Reaction,canvas.Screen,3_96_0_2,2022-03-01T09:52:23.415Z,,,,0,V,193.0689999999886,response,,stim_detected,keydown(Space),243200.89999997616,243196.5,242986.764,242989.30000001192,243003.431,243203.435,,white
,Trial,flow.Sequence,3_96_0,2022-03-01T09:52:23.416Z,,,,0,V,2759.787000000011,completion,,,,243201.30000001192,243196.5,240420.046,240426.69999998808,240436.713,243203.435,,white
,Frame,canvas.Frame,3_96,2022-03-01T09:52:23.416Z,,,,0,V,2764.6869999761693,,,,,243201.5,243201.39999997616,240420.046,240425.80000001192,240436.713,243203.435,,white
,Fixation,canvas.Screen,3_97_0_0,2022-03-01T09:52:24.953Z,,,,1,A,1550.0309999999881,timeout,,,,244739,244736.799,243186.768,243202.60000002384,243203.435,244753.466,,grey
,Stimulus,canvas.Screen,3_97_0_1,2022-03-01T09:52:25.054Z,,,,1,A,100.00200000000768,timeout,,,,244839.10000002384,244836.801,244736.799,244739.30000001192,244753.466,244853.468,,grey
,Reaction,canvas.Screen,3_97_0_2,2022-03-01T09:52:25.356Z,,,,1,A,282.93199997616466,response,,stim_detected,keydown(Space),245141.30000001192,245136.39999997616,244836.801,244839.39999997616,244853.468,245153.474,,grey
,Trial,flow.Sequence,3_97_0,2022-03-01T09:52:25.356Z,,,,1,A,1932.9649999761605,completion,,,,245141.69999998808,245136.39999997616,243186.768,243202.5,243203.435,245153.474,,grey
,Frame,canvas.Frame,3_97,2022-03-01T09:52:25.356Z,,,,1,A,1938.4649999761605,,,,,245142,245141.89999997616,243186.768,243201.60000002384,243203.435,245153.474,,grey
,Fixation,canvas.Screen,3_98_0_0,2022-03-01T09:52:26.937Z,,,,1,A,1583.3650000000198,timeout,,,,246722.89999997616,246720.172,245136.807,245143,245153.474,246736.839,,grey
,Stimulus,canvas.Screen,3_98_0_1,2022-03-01T09:52:27.037Z,,,,1,A,100.00199999997858,timeout,,,,246822.60000002384,246820.174,246720.172,246723.10000002384,246736.839,246836.841,,grey
,Reaction,canvas.Screen,3_98_0_2,2022-03-01T09:52:27.545Z,,,,1,A,488.45900001193513,response,,stim_detected,keydown(Space),247330,247325.30000001192,246820.174,246822.80000001192,246836.841,247336.851,,grey
,Trial,flow.Sequence,3_98_0,2022-03-01T09:52:27.545Z,,,,1,A,2171.8260000119335,completion,,,,247330.30000001192,247325.30000001192,245136.807,245142.89999997616,245153.474,247336.851,,grey
,Frame,canvas.Frame,3_98,2022-03-01T09:52:27.545Z,,,,1,A,2176.9259999761707,,,,,247330.5,247330.39999997616,245136.807,245142.10000002384,245153.474,247336.851,,grey
,Fixation,canvas.Screen,3_99_0_0,2022-03-01T09:52:29.637Z,,,,0,V,2100.042000000016,timeout,,,,249422.39999997616,249420.226,247320.184,247331.5,247336.851,249436.893,,white
,Stimulus,canvas.Screen,3_99_0_1,2022-03-01T09:52:29.737Z,,,,0,V,100.00199999997858,timeout,,,,249522.60000002384,249520.228,249420.226,249422.80000001192,249436.893,249536.895,,white
,Reaction,canvas.Screen,3_99_0_2,2022-03-01T09:52:29.967Z,,,,0,V,209.30499998808955,response,,stim_detected,keydown(Space),249751.89999997616,249746.19999998808,249520.228,249522.89999997616,249536.895,249770.233,,white
,Trial,flow.Sequence,3_99_0,2022-03-01T09:52:29.969Z,,,,0,V,2409.348999988084,completion,,,,249754.30000001192,249746.19999998808,247320.184,247331.5,247336.851,249770.233,,white
,Frame,canvas.Frame,3_99,2022-03-01T09:52:29.970Z,,,,0,V,2417.949000011926,,,,,249755.10000002384,249754.80000001192,247320.184,247330.60000002384,247336.851,249770.233,,white
,Loop,flow.Loop,3,2022-03-01T09:52:29.971Z,,,,,,235339.2740000119,completion,,,,249755.69999998808,249754.80000001192,14398.859,14401.600000023842,14415.526,249770.233,,
,end,html.Page,4,2022-03-01T09:52:32.404Z,,,,,,2418.5670000119135,form submission,,,,252189.19999998808,252188.80000001192,249753.566,249756,249770.233,252203.615,,
,root,flow.Sequence,,2022-03-01T09:52:32.405Z,,,,,,251190.20900001194,completion,,,,252189.69999998808,252188.80000001192,965.257,948.6999999880791,998.591,252203.615,,