id,sender,sender_type,sender_id,timestamp,meta,,age,aud,condition,duration,ended_on,gender,response,response_action,time_commit,time_end,time_render,time_run,time_show,time_switch,url,vis
Uzi Tenenbaum,Hello,html.Page,0,2022-03-01T10:24:00.303Z,"{""labjs_version"":""20.2.4"",""labjs_build"":{""flavor"":""development"",""commit"":""f5b4a49f956347addd546a832a3327688c2c0fef""},""location"":""https://labjs.felixhenninger.com/api/labjs_preview/index.html"",""userAgent"":""Mozilla/5.0 (Macintosh; Intel Mac OS X 10_15_7) AppleWebKit/537.36 (KHTML, like Gecko) Chrome/98.0.4758.80 Safari/537.36"",""platform"":""MacIntel"",""language"":""de-DE"",""locale"":""de"",""timeZone"":""Europe/Berlin"",""timezoneOffset"":-60,""screen_width"":1440,""screen_height"":900,""scroll_width"":1440,""scroll_height"":708,""window_innerWidth"":1440,""window_innerHeight"":756,""devicePixelRatio"":1}",,11,,,11059.337,form submission,male,,,12240.100000023842,12239.5,1163.496,1155.300000011921,1180.163,12230.384,{},
,Instructions,html.Page,1,2022-03-01T10:24:00.937Z,,,,,,643.0159999761581,form submission,,,,12874.300000011921,12873.399999976158,12213.717,12240.899999976158,12230.384,12880.397,,
,Change Background,canvas.Screen,2,2022-03-01T10:24:03.929Z,,,,,,3000.0599999999995,timeout,,,,15866.199999988079,15863.79,12863.73,12874.600000023842,12880.397,15880.457,,
,Fixation,canvas.Screen,3_0_0_0,2022-03-01T10:24:06.095Z,,,,1,A,2166.710000000001,timeout,,,,18032.899999976158,18030.5,15863.79,15867.699999988079,15880.457,18047.167,,grey
,Stimulus,canvas.Screen,3_0_0_1,2022-03-01T10:24:06.196Z,,,,1,A,100.00200000000041,timeout,,,,18133.69999998808,18130.502,18030.5,18033.100000023842,18047.167,18147.169,,grey
,Reaction,canvas.Screen,3_0_0_2,2022-03-01T10:24:07.696Z,,,,1,A,1500.0299999999988,timeout,,,,19633,19630.532,18130.502,18133.899999976158,18147.169,19647.199,,grey
,Trial,flow.Sequence,3_0_0,2022-03-01T10:24:07.712Z,,,,1,A,3750.074999999999,completion,,,,19649.69999998808,19630.532,15863.79,15867.600000023842,15880.457,19647.199,,grey
,Frame,canvas.Frame,3_0,2022-03-01T10:24:07.713Z,,,,1,A,3769.3430000119206,,,,,19650,19649.80000001192,15863.79,15866.600000023842,15880.457,19663.866,,grey
,Fixation,canvas.Screen,3_1_0_0,2022-03-01T10:24:10.161Z,,,,0,V,2450.048999999999,timeout,,,,22098.600000023842,22097.248,19647.199,19650.5,19663.866,22113.915,,white
,Stimulus,canvas.Screen,3_1_0_1,2022-03-01T10:24:10.263Z,,,,0,V,100.00200000000041,timeout,,,,22199.899999976158,22197.25,22097.248,22099.19999998808,22113.915,22213.917,,white
,Reaction,canvas.Screen,3_1_0_2,2022-03-01T10:24:10.567Z,,,,0,V,271.2829999880778,response,,stim_detected,keydown(Space),22504.30000001192,22485.19999998808,22197.25,22200.100000023842,22213.917,22513.923,,white
,Trial,flow.Sequence,3_1_0,2022-03-01T10:24:10.567Z,,,,0,V,2821.3339999880773,completion,,,,22504.600000023842,22485.19999998808,19647.199,19650.5,19663.866,22513.923,,white
,Frame,canvas.Frame,3_1,2022-03-01T10:24:10.568Z,,,,0,V,2840.8339999880773,,,,,22504.80000001192,22504.69999998808,19647.199,19650.100000023842,19663.866,22513.923,,white
,Fixation,canvas.Screen,3_2_0_0,2022-03-01T10:24:13.029Z,,,,1,VA,2466.7160000000003,timeout,,,,24966.100000023842,24963.972,22497.256,22505.5,22513.923,24980.639,,white
,Stimulus,canvas.Screen,3_2_0_1,2022-03-01T10:24:13.130Z,,,,1,VA,100.00200000000041,timeout,,,,25066.80000001192,25063.974,24963.972,24966.30000001192,24980.639,25080.641,,white
,Reaction,canvas.Screen,3_2_0_2,2022-03-01T10:24:13.372Z,,,,1,VA,224.45900002384224,response,,stim_detected,keydown(Space),25309.600000023842,25305.100000023842,25063.974,25067.100000023842,25080.641,25363.98,,white
,Trial,flow.Sequence,3_2_0,2022-03-01T10:24:13.374Z,,,,1,VA,2791.177000023843,completion,,,,25310.899999976158,25305.100000023842,22497.256,22505.399999976158,22513.923,25363.98,,white
,Frame,canvas.Frame,3_2,2022-03-01T10:24:13.374Z,,,,1,VA,2797.177000023843,,,,,25311.30000001192,25311.100000023842,22497.256,22504.899999976158,22513.923,25363.98,,white
,Fixation,canvas.Screen,3_3_0_0,2022-03-01T10:24:15.146Z,,,,1,A,1733.3680000000022,timeout,,,,27083,27080.681,25347.313,25312.399999976158,25363.98,27097.348,,grey
,Stimulus,canvas.Screen,3_3_0_1,2022-03-01T10:24:15.246Z,,,,1,A,100.00199999999677,timeout,,,,27183.5,27180.683,27080.681,27083.19999998808,27097.348,27197.35,,grey
,Reaction,canvas.Screen,3_3_0_2,2022-03-01T10:24:15.534Z,,,,1,A,269.65000000000146,response,,stim_detected,keydown(Space),27471.5,27467,27180.683,27183.80000001192,27197.35,27480.689,,grey
,Trial,flow.Sequence,3_3_0,2022-03-01T10:24:15.535Z,,,,1,A,2103.0200000000004,completion,,,,27471.899999976158,27467,25347.313,25312.30000001192,25363.98,27480.689,,grey
,Frame,canvas.Frame,3_3,2022-03-01T10:24:15.535Z,,,,1,A,2107.9199999761586,,,,,27472.100000023842,27471.899999976158,25347.313,25311.399999976158,25363.98,27480.689,,grey
,Fixation,canvas.Screen,3_4_0_0,2022-03-01T10:24:17.563Z,,,,1,VA,2033.3739999999998,timeout,,,,29499.80000001192,29497.396,27464.022,27473.30000001192,27480.689,29514.063,,white
,Stimulus,canvas.Screen,3_4_0_1,2022-03-01T10:24:17.663Z,,,,1,VA,100.00200000000041,timeout,,,,29599.899999976158,29597.398,29497.396,29500.100000023842,29514.063,29614.065,,white
,Reaction,canvas.Screen,3_4_0_2,2022-03-01T10:24:19.161Z,,,,1,VA,1500.0300000000025,timeout,,,,31098.5,31097.428,29597.398,29600,29614.065,31114.095,,white
,Trial,flow.Sequence,3_4_0,2022-03-01T10:24:19.162Z,,,,1,VA,3616.7390000000014,completion,,,,31098.80000001192,31097.428,27464.022,27473.19999998808,27480.689,31114.095,,white
,Frame,canvas.Frame,3_4,2022-03-01T10:24:19.162Z,,,,1,VA,3618.2109999761597,,,,,31099,31098.899999976158,27464.022,27472.19999998808,27480.689,31130.762,,white
,Fixation,canvas.Screen,3_5_0_0,2022-03-01T10:24:21.530Z,,,,1,VA,2350.0470000000023,timeout,,,,33466.80000001192,33464.142,31114.095,31100.19999998808,31130.762,33480.809,,white
,Stimulus,canvas.Screen,3_5_0_1,2022-03-01T10:24:21.630Z,,,,1,VA,100.00200000000041,timeout,,,,33566.5,33564.144,33464.142,33467.10000002384,33480.809,33580.811,,white
,Reaction,canvas.Screen,3_5_0_2,2022-03-01T10:24:23.129Z,,,,1,VA,1500.0299999999988,timeout,,,,35066.30000001192,35064.174,33564.144,33566.69999998808,33580.811,35080.841,,white
,Trial,flow.Sequence,3_5_0,2022-03-01T10:24:23.130Z,,,,1,VA,3933.4120000000003,completion,,,,35066.60000002384,35064.174,31114.095,31100.19999998808,31130.762,35080.841,,white
,Frame,canvas.Frame,3_5,2022-03-01T10:24:23.130Z,,,,1,VA,3936.038000011922,,,,,35067,35066.80000001192,31114.095,31099.100000023842,31130.762,35097.508,,white
,Fixation,canvas.Screen,3_6_0_0,2022-03-01T10:24:25.395Z,,,,1,A,2250.0449999999983,timeout,,,,37331.80000001192,37330.886,35080.841,35068.19999998808,35097.508,37347.553,,grey
,Stimulus,canvas.Screen,3_6_0_1,2022-03-01T10:24:25.497Z,,,,1,A,100.00200000000041,timeout,,,,37433.5,37430.888,37330.886,37332.10000002384,37347.553,37447.555,,grey
,Reaction,canvas.Screen,3_6_0_2,2022-03-01T10:24:26.996Z,,,,1,A,1500.0299999999988,timeout,,,,38932.80000001192,38930.918,37430.888,37433.60000002384,37447.555,38947.585,,grey
,Trial,flow.Sequence,3_6_0,2022-03-01T10:24:26.996Z,,,,1,A,3833.409999999996,completion,,,,38933.10000002384,38930.918,35080.841,35068.10000002384,35097.508,38947.585,,grey
,Frame,canvas.Frame,3_6,2022-03-01T10:24:26.996Z,,,,1,A,3835.6919999880774,,,,,38933.19999998808,38933.19999998808,35080.841,35067.19999998808,35097.508,38964.252,,grey
,Fixation,canvas.Screen,3_7_0_0,2022-03-01T10:24:28.880Z,,,,1,A,1866.703999999998,timeout,,,,40816.69999998808,40814.289,38947.585,38934.30000001192,38964.252,40830.956,,grey
,Stimulus,canvas.Screen,3_7_0_1,2022-03-01T10:24:28.980Z,,,,1,A,100.00200000000041,timeout,,,,40916.30000001192,40914.291,40814.289,40816.89999997616,40830.956,40930.958,,grey
,Reaction,canvas.Screen,3_7_0_2,2022-03-01T10:24:30.479Z,,,,1,A,1533.3640000000014,timeout,,,,42415.69999998808,42414.321,40914.291,40916.60000002384,40930.958,42464.322,,grey
,Trial,flow.Sequence,3_7_0,2022-03-01T10:24:30.479Z,,,,1,A,3450.069000000003,completion,,,,42416.10000002384,42414.321,38947.585,38934.19999998808,38964.252,42464.322,,grey
,Frame,canvas.Frame,3_7,2022-03-01T10:24:30.480Z,,,,1,A,3451.9479999880787,,,,,42416.30000001192,42416.19999998808,38947.585,38933.39999997616,38964.252,42480.989,,grey
,Fixation,canvas.Screen,3_8_0_0,2022-03-01T10:24:32.379Z,,,,1,VA,1850.0369999999966,timeout,,,,44315.19999998808,44314.359,42464.322,42417.39999997616,42480.989,44331.026,,white
,Stimulus,canvas.Screen,3_8_0_1,2022-03-01T10:24:32.479Z,,,,1,VA,100.00200000000041,timeout,,,,44415.69999998808,44414.361,44314.359,44315.39999997616,44331.026,44431.028,,white
,Reaction,canvas.Screen,3_8_0_2,2022-03-01T10:24:33.980Z,,,,1,VA,1500.0299999999988,timeout,,,,45916.19999998808,45914.391,44414.361,44415.89999997616,44431.028,45931.058,,white
,Trial,flow.Sequence,3_8_0,2022-03-01T10:24:33.980Z,,,,1,VA,3433.402000000002,completion,,,,45916.5,45914.391,42464.322,42417.30000001192,42480.989,45931.058,,white
,Frame,canvas.Frame,3_8,2022-03-01T10:24:33.980Z,,,,1,VA,3435.5109999999986,,,,,45916.69999998808,45916.5,42464.322,42416.39999997616,42480.989,45947.725,,white
,Fixation,canvas.Screen,3_9_0_0,2022-03-01T10:24:36.013Z,,,,0,V,2016.7070000000022,timeout,,,,47949.30000001192,47947.765,45931.058,45917.69999998808,45947.725,47964.432,,white
,Stimulus,canvas.Screen,3_9_0_1,2022-03-01T10:24:36.113Z,,,,0,V,100.00200000000041,timeout,,,,48049.89999997616,48047.767,47947.765,47949.60000002384,47964.432,48064.434,,white
,Reaction,canvas.Screen,3_9_0_2,2022-03-01T10:24:37.614Z,,,,0,V,1500.0299999999988,timeout,,,,49550.10000002384,49547.797,48047.767,48050.10000002384,48064.434,49564.464,,white
,Trial,flow.Sequence,3_9_0,2022-03-01T10:24:37.614Z,,,,0,V,3600.072,completion,,,,49550.39999997616,49547.797,45931.058,45917.69999998808,45947.725,49564.464,,white
,Frame,canvas.Frame,3_9,2022-03-01T10:24:37.614Z,,,,0,V,3602.7750000000015,,,,,49550.60000002384,49550.5,45931.058,45916.80000001192,45947.725,49581.131,,white
,Fixation,canvas.Screen,3_10_0_0,2022-03-01T10:24:39.763Z,,,,1,VA,2133.3759999999966,timeout,,,,51699.30000001192,51697.84,49564.464,49551.60000002384,49581.131,51714.507,,white
,Stimulus,canvas.Screen,3_10_0_1,2022-03-01T10:24:39.864Z,,,,1,VA,100.00200000000041,timeout,,,,51800.80000001192,51797.842,51697.84,51699.5,51714.507,51814.509,,white
,Reaction,canvas.Screen,3_10_0_2,2022-03-01T10:24:41.364Z,,,,1,VA,1500.0299999999988,timeout,,,,53300.60000002384,53297.872,51797.842,51801.10000002384,51814.509,53314.539,,white
,Trial,flow.Sequence,3_10_0,2022-03-01T10:24:41.364Z,,,,1,VA,3716.741000000002,completion,,,,53300.89999997616,53297.872,49564.464,49551.5,49581.131,53314.539,,white
,Frame,canvas.Frame,3_10,2022-03-01T10:24:41.365Z,,,,1,VA,3719.868999999999,,,,,53301.10000002384,53301,49564.464,49550.69999998808,49581.131,53331.206,,white
,Fixation,canvas.Screen,3_11_0_0,2022-03-01T10:24:42.931Z,,,,1,A,1550.0310000000027,timeout,,,,54867.5,54864.57,53314.539,53302.10000002384,53331.206,54881.237,,grey
,Stimulus,canvas.Screen,3_11_0_1,2022-03-01T10:24:43.030Z,,,,1,A,100.00200000000041,timeout,,,,54966.39999997616,54964.572,54864.57,54867.80000001192,54881.237,54981.239,,grey
,Reaction,canvas.Screen,3_11_0_2,2022-03-01T10:24:44.530Z,,,,1,A,1500.0299999999988,timeout,,,,56466.60000002384,56464.602,54964.572,54966.60000002384,54981.239,56481.269,,grey
,Trial,flow.Sequence,3_11_0,2022-03-01T10:24:44.531Z,,,,1,A,3133.3960000000006,completion,,,,56466.89999997616,56464.602,53314.539,53302,53331.206,56481.269,,grey
,Frame,canvas.Frame,3_11,2022-03-01T10:24:44.531Z,,,,1,A,3135.7940000000017,,,,,56467,56467,53314.539,53301.10000002384,53331.206,56497.936,,grey
,Fixation,canvas.Screen,3_12_0_0,2022-03-01T10:24:46.497Z,,,,1,A,1950.038999999997,timeout,,,,58433,58431.308,56481.269,56468.10000002384,56497.936,58447.975,,grey
,Stimulus,canvas.Screen,3_12_0_1,2022-03-01T10:24:46.596Z,,,,1,A,100.00200000000041,timeout,,,,58532.5,58531.31,58431.308,58433.19999998808,58447.975,58547.977,,grey
,Reaction,canvas.Screen,3_12_0_2,2022-03-01T10:24:48.098Z,,,,1,A,1500.0299999999988,timeout,,,,60033.89999997616,60031.34,58531.31,58532.69999998808,58547.977,60048.007,,grey
,Trial,flow.Sequence,3_12_0,2022-03-01T10:24:48.098Z,,,,1,A,3533.403999999995,completion,,,,60034.10000002384,60031.34,56481.269,56468,56497.936,60048.007,,grey
,Frame,canvas.Frame,3_12,2022-03-01T10:24:48.098Z,,,,1,A,3536.2639999880776,,,,,60034.30000001192,60034.19999998808,56481.269,56467.19999998808,56497.936,60064.674,,grey
,Fixation,canvas.Screen,3_13_0_0,2022-03-01T10:24:49.781Z,,,,0,V,1683.3669999999984,timeout,,,,61717.39999997616,61714.707,60048.007,60035.30000001192,60064.674,61748.041,,white
,Stimulus,canvas.Screen,3_13_0_1,2022-03-01T10:24:49.898Z,,,,0,V,100.00200000000041,timeout,,,,61833.89999997616,61831.376,61714.707,61717.69999998808,61748.041,61848.043,,white
,Reaction,canvas.Screen,3_13_0_2,2022-03-01T10:24:51.396Z,,,,0,V,1500.0299999999988,timeout,,,,63332.5,63331.406,61831.376,61834.30000001192,61848.043,63348.073,,white
,Trial,flow.Sequence,3_13_0,2022-03-01T10:24:51.397Z,,,,0,V,3266.7320000000036,completion,,,,63332.80000001192,63331.406,60048.007,60035.19999998808,60064.674,63348.073,,white
,Frame,canvas.Frame,3_13,2022-03-01T10:24:51.397Z,,,,0,V,3268.225999976159,,,,,63333,63332.89999997616,60048.007,60034.39999997616,60064.674,63364.74,,white
,Fixation,canvas.Screen,3_14_0_0,2022-03-01T10:24:52.980Z,,,,0,V,1566.698000000004,timeout,,,,64915.80000001192,64914.771,63348.073,63334,63364.74,64931.438,,white
,Stimulus,canvas.Screen,3_14_0_1,2022-03-01T10:24:53.081Z,,,,0,V,100.00200000000041,timeout,,,,65017.39999997616,65014.773,64914.771,64916,64931.438,65031.44,,white
,Reaction,canvas.Screen,3_14_0_2,2022-03-01T10:24:54.581Z,,,,0,V,1500.0299999999988,timeout,,,,66517.19999998808,66514.803,65014.773,65017.60000002384,65031.44,66531.47,,white
,Trial,flow.Sequence,3_14_0,2022-03-01T10:24:54.581Z,,,,0,V,3150.063000000002,completion,,,,66517.5,66514.803,63348.073,63333.89999997616,63364.74,66531.47,,white
,Frame,canvas.Frame,3_14,2022-03-01T10:24:54.582Z,,,,0,V,3152.860000023844,,,,,66517.69999998808,66517.60000002384,63348.073,63333.10000002384,63364.74,66548.137,,white
,Fixation,canvas.Screen,3_15_0_0,2022-03-01T10:24:56.931Z,,,,1,A,2333.3800000000047,timeout,,,,68867,68864.85,66531.47,66518.69999998808,66548.137,68881.517,,grey
,Stimulus,canvas.Screen,3_15_0_1,2022-03-01T10:24:57.031Z,,,,1,A,100.00199999999313,timeout,,,,68967,68964.852,68864.85,68867.19999998808,68881.517,68981.519,,grey
,Reaction,canvas.Screen,3_15_0_2,2022-03-01T10:24:58.531Z,,,,1,A,1500.0299999999988,timeout,,,,70466.80000001192,70464.882,68964.852,68967.10000002384,68981.519,70481.549,,grey
,Trial,flow.Sequence,3_15_0,2022-03-01T10:24:58.531Z,,,,1,A,3916.7449999999953,completion,,,,70467.10000002384,70464.882,66531.47,66518.60000002384,66548.137,70481.549,,grey
,Frame,canvas.Frame,3_15,2022-03-01T10:24:58.531Z,,,,1,A,3919.0629999880766,,,,,70467.30000001192,70467.19999998808,66531.47,66517.80000001192,66548.137,70498.216,,grey
,Fixation,canvas.Screen,3_16_0_0,2022-03-01T10:25:00.598Z,,,,1,A,2050.0409999999974,timeout,,,,72533.39999997616,72531.59,70481.549,70468.30000001192,70498.216,72548.257,,grey
,Stimulus,canvas.Screen,3_16_0_1,2022-03-01T10:25:00.698Z,,,,1,A,100.00200000000768,timeout,,,,72633.69999998808,72631.592,72531.59,72533.69999998808,72548.257,72648.259,,grey
,Reaction,canvas.Screen,3_16_0_2,2022-03-01T10:25:02.198Z,,,,1,A,1500.0299999999988,timeout,,,,74133.89999997616,74131.622,72631.592,72633.89999997616,72648.259,74148.289,,grey
,Trial,flow.Sequence,3_16_0,2022-03-01T10:25:02.198Z,,,,1,A,3633.4060000000027,completion,,,,74134.30000001192,74131.622,70481.549,70468.19999998808,70498.216,74148.289,,grey
,Frame,canvas.Frame,3_16,2022-03-01T10:25:02.199Z,,,,1,A,3636.0840000119206,,,,,74134.5,74134.30000001192,70481.549,70467.5,70498.216,74164.956,,grey
,Fixation,canvas.Screen,3_17_0_0,2022-03-01T10:25:04.081Z,,,,1,VA,1866.703999999998,timeout,,,,76016.5,76014.993,74148.289,74135.5,74164.956,76031.66,,white
,Stimulus,canvas.Screen,3_17_0_1,2022-03-01T10:25:04.182Z,,,,1,VA,100.00199999999313,timeout,,,,76117.39999997616,76114.995,76014.993,76016.69999998808,76031.66,76131.662,,white
,Reaction,canvas.Screen,3_17_0_2,2022-03-01T10:25:05.682Z,,,,1,VA,1500.0299999999988,timeout,,,,77617.5,77615.025,76114.995,76117.60000002384,76131.662,77631.692,,white
,Trial,flow.Sequence,3_17_0,2022-03-01T10:25:05.682Z,,,,1,VA,3450.0689999999886,completion,,,,77617.80000001192,77615.025,74148.289,74135.5,74164.956,77631.692,,white
,Frame,canvas.Frame,3_17,2022-03-01T10:25:05.682Z,,,,1,VA,3452.8440000119153,,,,,77618,77617.80000001192,74148.289,74134.5,74164.956,77648.359,,white
,Fixation,canvas.Screen,3_18_0_0,2022-03-01T10:25:07.282Z,,,,1,A,1583.3650000000052,timeout,,,,79217.30000001192,79215.057,77631.692,77618.89999997616,77648.359,79231.724,,grey
,Stimulus,canvas.Screen,3_18_0_1,2022-03-01T10:25:07.382Z,,,,1,A,100.00199999999313,timeout,,,,79317.39999997616,79315.059,79215.057,79217.5,79231.724,79331.726,,grey
,Reaction,canvas.Screen,3_18_0_2,2022-03-01T10:25:08.881Z,,,,1,A,1500.0299999999988,timeout,,,,80817,80815.089,79315.059,79317.60000002384,79331.726,80831.756,,grey
,Trial,flow.Sequence,3_18_0,2022-03-01T10:25:08.882Z,,,,1,A,3166.7300000000105,completion,,,,80817.39999997616,80815.089,77631.692,77618.80000001192,77648.359,80831.756,,grey
,Frame,canvas.Frame,3_18,2022-03-01T10:25:08.882Z,,,,1,A,3169.0409999761614,,,,,80817.60000002384,80817.39999997616,77631.692,77618.10000002384,77648.359,80848.423,,grey
,Fixation,canvas.Screen,3_19_0_0,2022-03-01T10:25:10.732Z,,,,1,A,1850.0370000000112,timeout,,,,82667.5,82665.126,80831.756,80818.69999998808,80848.423,82698.46,,grey
,Stimulus,canvas.Screen,3_19_0_1,2022-03-01T10:25:10.848Z,,,,1,A,100.00199999999313,timeout,,,,82784,82781.795,82665.126,82667.60000002384,82698.46,82798.462,,grey
,Reaction,canvas.Screen,3_19_0_2,2022-03-01T10:25:12.349Z,,,,1,A,1500.0299999999988,timeout,,,,84284.5,84281.825,82781.795,82784.39999997616,82798.462,84298.492,,grey
,Trial,flow.Sequence,3_19_0,2022-03-01T10:25:12.349Z,,,,1,A,3433.402000000002,completion,,,,84284.69999998808,84281.825,80831.756,80818.69999998808,80848.423,84298.492,,grey
,Frame,canvas.Frame,3_19,2022-03-01T10:25:12.349Z,,,,1,A,3436.3770000119257,,,,,84285,84284.80000001192,80831.756,80817.69999998808,80848.423,84315.159,,grey
,Fixation,canvas.Screen,3_20_0_0,2022-03-01T10:25:14.381Z,,,,1,A,2016.7069999999949,timeout,,,,86316.60000002384,86315.199,84298.492,84285.89999997616,84315.159,86331.866,,grey
,Stimulus,canvas.Screen,3_20_0_1,2022-03-01T10:25:14.482Z,,,,1,A,100.00200000000768,timeout,,,,86417.5,86415.201,86315.199,86317,86331.866,86431.868,,grey
,Reaction,canvas.Screen,3_20_0_2,2022-03-01T10:25:15.981Z,,,,1,A,1500.0299999999988,timeout,,,,87916.69999998808,87915.231,86415.201,86417.69999998808,86431.868,87931.898,,grey
,Trial,flow.Sequence,3_20_0,2022-03-01T10:25:15.981Z,,,,1,A,3600.072,completion,,,,87916.89999997616,87915.231,84298.492,84285.89999997616,84315.159,87931.898,,grey
,Frame,canvas.Frame,3_20,2022-03-01T10:25:15.982Z,,,,1,A,3601.941000023842,,,,,87917.19999998808,87917.10000002384,84298.492,84285.10000002384,84315.159,87948.565,,grey
,Fixation,canvas.Screen,3_21_0_0,2022-03-01T10:25:18.398Z,,,,1,A,2400.047999999995,timeout,,,,90333.60000002384,90331.946,87931.898,87918.10000002384,87948.565,90348.613,,grey
,Stimulus,canvas.Screen,3_21_0_1,2022-03-01T10:25:18.500Z,,,,1,A,100.00200000000768,timeout,,,,90435.39999997616,90431.948,90331.946,90333.80000001192,90348.613,90448.615,,grey
,Reaction,canvas.Screen,3_21_0_2,2022-03-01T10:25:19.998Z,,,,1,A,1500.0299999999988,timeout,,,,91933.69999998808,91931.978,90431.948,90435.69999998808,90448.615,91948.645,,grey
,Trial,flow.Sequence,3_21_0,2022-03-01T10:25:19.999Z,,,,1,A,3983.4130000000005,completion,,,,91934,91931.978,87931.898,87918.10000002384,87948.565,91948.645,,grey
,Frame,canvas.Frame,3_21,2022-03-01T10:25:19.999Z,,,,1,A,3985.4349999999977,,,,,91934.19999998808,91934,87931.898,87917.30000001192,87948.565,91965.312,,grey
,Fixation,canvas.Screen,3_22_0_0,2022-03-01T10:25:22.383Z,,,,1,A,2366.7139999999927,timeout,,,,94317.80000001192,94315.359,91948.645,91935.30000001192,91965.312,94332.026,,grey
,Stimulus,canvas.Screen,3_22_0_1,2022-03-01T10:25:22.482Z,,,,1,A,100.00200000000768,timeout,,,,94417.69999998808,94415.361,94315.359,94318,94332.026,94432.028,,grey
,Reaction,canvas.Screen,3_22_0_2,2022-03-01T10:25:23.982Z,,,,1,A,1500.0299999999988,timeout,,,,95917.60000002384,95915.391,94415.361,94417.80000001192,94432.028,95932.058,,grey
,Trial,flow.Sequence,3_22_0,2022-03-01T10:25:23.983Z,,,,1,A,3950.078999999998,completion,,,,95917.80000001192,95915.391,91948.645,91935.19999998808,91965.312,95932.058,,grey
,Frame,canvas.Frame,3_22,2022-03-01T10:25:23.983Z,,,,1,A,3952.587999976153,,,,,95918,95917.89999997616,91948.645,91934.30000001192,91965.312,95948.725,,grey
,Fixation,canvas.Screen,3_23_0_0,2022-03-01T10:25:25.632Z,,,,1,A,1650.0329999999958,timeout,,,,97566.89999997616,97565.424,95932.058,95919,95948.725,97598.758,,grey
,Stimulus,canvas.Screen,3_23_0_1,2022-03-01T10:25:25.748Z,,,,1,A,100.00199999999313,timeout,,,,97683.39999997616,97682.093,97565.424,97567.19999998808,97598.758,97698.76,,grey
,Reaction,canvas.Screen,3_23_0_2,2022-03-01T10:25:27.249Z,,,,1,A,1500.0299999999988,timeout,,,,99184.10000002384,99182.123,97682.093,97683.60000002384,97698.76,99198.79,,grey
,Trial,flow.Sequence,3_23_0,2022-03-01T10:25:27.249Z,,,,1,A,3233.398000000001,completion,,,,99184.30000001192,99182.123,95932.058,95918.89999997616,95948.725,99198.79,,grey
,Frame,canvas.Frame,3_23,2022-03-01T10:25:27.249Z,,,,1,A,3235.6749999761523,,,,,99184.5,99184.39999997616,95932.058,95918.19999998808,95948.725,99215.457,,grey
,Fixation,canvas.Screen,3_24_0_0,2022-03-01T10:25:29.432Z,,,,0,V,2166.7100000000064,timeout,,,,101367,101365.5,99198.79,99185.69999998808,99215.457,101382.167,,white
,Stimulus,canvas.Screen,3_24_0_1,2022-03-01T10:25:29.533Z,,,,0,V,100.00199999999313,timeout,,,,101467.69999998808,101465.502,101365.5,101367.19999998808,101382.167,101482.169,,white
,Reaction,canvas.Screen,3_24_0_2,2022-03-01T10:25:31.033Z,,,,0,V,1500.0299999999988,timeout,,,,102967.89999997616,102965.532,101465.502,101467.89999997616,101482.169,102982.199,,white
,Trial,flow.Sequence,3_24_0,2022-03-01T10:25:31.033Z,,,,0,V,3750.0750000000116,completion,,,,102968.30000001192,102965.532,99198.79,99185.60000002384,99215.457,102982.199,,white
,Frame,canvas.Frame,3_24,2022-03-01T10:25:31.033Z,,,,0,V,3752.9429999761633,,,,,102968.5,102968.39999997616,99198.79,99184.69999998808,99215.457,102998.866,,white
,Fixation,canvas.Screen,3_25_0_0,2022-03-01T10:25:33.099Z,,,,0,V,2050.041000000012,timeout,,,,105034,105032.24,102982.199,102969.5,102998.866,105048.907,,white
,Stimulus,canvas.Screen,3_25_0_1,2022-03-01T10:25:33.199Z,,,,0,V,100.00199999999313,timeout,,,,105134.30000001192,105132.242,105032.24,105034.10000002384,105048.907,105148.909,,white
,Reaction,canvas.Screen,3_25_0_2,2022-03-01T10:25:34.699Z,,,,0,V,1500.0299999999988,timeout,,,,106634.10000002384,106632.272,105132.242,105134.39999997616,105148.909,106648.939,,white
,Trial,flow.Sequence,3_25_0,2022-03-01T10:25:34.699Z,,,,0,V,3633.4060000000027,completion,,,,106634.30000001192,106632.272,102982.199,102969.5,102998.866,106648.939,,white
,Frame,canvas.Frame,3_25,2022-03-01T10:25:34.700Z,,,,0,V,3635.5339999761636,,,,,106634.5,106634.39999997616,102982.199,102968.69999998808,102998.866,106665.606,,white
,Fixation,canvas.Screen,3_26_0_0,2022-03-01T10:25:36.617Z,,,,1,VA,1900.0380000000005,timeout,,,,108551.5,108548.977,106648.939,106635.5,106665.606,108565.644,,white
,Stimulus,canvas.Screen,3_26_0_1,2022-03-01T10:25:36.716Z,,,,1,VA,100.00199999999313,timeout,,,,108651.30000001192,108648.979,108548.977,108551.80000001192,108565.644,108665.646,,white
,Reaction,canvas.Screen,3_26_0_2,2022-03-01T10:25:38.217Z,,,,1,VA,1500.0300000000134,timeout,,,,110151.69999998808,110149.009,108648.979,108651.5,108665.646,110165.676,,white
,Trial,flow.Sequence,3_26_0,2022-03-01T10:25:38.217Z,,,,1,VA,3483.4030000000057,completion,,,,110152,110149.009,106648.939,106635.5,106665.606,110165.676,,white
,Frame,canvas.Frame,3_26,2022-03-01T10:25:38.217Z,,,,1,VA,3486.494000023842,,,,,110152.10000002384,110152.10000002384,106648.939,106634.69999998808,106665.606,110182.343,,white
,Fixation,canvas.Screen,3_27_0_0,2022-03-01T10:25:40.150Z,,,,0,V,1933.372000000003,timeout,,,,112084.80000001192,112082.381,110165.676,110153.19999998808,110182.343,112115.715,,white
,Stimulus,canvas.Screen,3_27_0_1,2022-03-01T10:25:40.267Z,,,,0,V,100.00200000000768,timeout,,,,112201.39999997616,112199.05,112082.381,112084.89999997616,112115.715,112215.717,,white
,Reaction,canvas.Screen,3_27_0_2,2022-03-01T10:25:41.767Z,,,,0,V,1500.0299999999988,timeout,,,,113701.89999997616,113699.08,112199.05,112201.60000002384,112215.717,113715.747,,white
,Trial,flow.Sequence,3_27_0,2022-03-01T10:25:41.767Z,,,,0,V,3516.7370000000083,completion,,,,113702.10000002384,113699.08,110165.676,110153.10000002384,110182.343,113715.747,,white
,Frame,canvas.Frame,3_27,2022-03-01T10:25:41.768Z,,,,0,V,3519.9570000119274,,,,,113702.39999997616,113702.30000001192,110165.676,110152.30000001192,110182.343,113732.414,,white
,Fixation,canvas.Screen,3_28_0_0,2022-03-01T10:25:44.117Z,,,,1,A,2333.37999999999,timeout,,,,116051.60000002384,116049.127,113715.747,113703.39999997616,113732.414,116065.794,,grey
,Stimulus,canvas.Screen,3_28_0_1,2022-03-01T10:25:44.216Z,,,,1,A,100.00200000000768,timeout,,,,116150.69999998808,116149.129,116049.127,116051.80000001192,116065.794,116165.796,,grey
,Reaction,canvas.Screen,3_28_0_2,2022-03-01T10:25:45.717Z,,,,1,A,1500.0299999999988,timeout,,,,117652,117649.159,116149.129,116151,116165.796,117665.826,,grey
,Trial,flow.Sequence,3_28_0,2022-03-01T10:25:45.718Z,,,,1,A,3916.7449999999953,completion,,,,117652.30000001192,117649.159,113715.747,113703.30000001192,113732.414,117665.826,,grey
,Frame,canvas.Frame,3_28,2022-03-01T10:25:45.718Z,,,,1,A,3919.985999976154,,,,,117652.5,117652.39999997616,113715.747,113702.60000002384,113732.414,117682.493,,grey
,Fixation,canvas.Screen,3_29_0_0,2022-03-01T10:25:47.250Z,,,,0,V,1516.6970000000001,timeout,,,,119184.80000001192,119182.523,117665.826,117653.5,117682.493,119199.19,,white
,Stimulus,canvas.Screen,3_29_0_1,2022-03-01T10:25:47.350Z,,,,0,V,100.00199999999313,timeout,,,,119284.5,119282.525,119182.523,119185,119199.19,119299.192,,white
,Reaction,canvas.Screen,3_29_0_2,2022-03-01T10:25:48.850Z,,,,0,V,1500.0299999999988,timeout,,,,120784.19999998808,120782.555,119282.525,119284.69999998808,119299.192,120799.222,,white
,Trial,flow.Sequence,3_29_0,2022-03-01T10:25:48.850Z,,,,0,V,3100.061999999991,completion,,,,120784.39999997616,120782.555,117665.826,117653.39999997616,117682.493,120799.222,,white
,Frame,canvas.Frame,3_29,2022-03-01T10:25:48.850Z,,,,0,V,3102.1070000238396,,,,,120784.60000002384,120784.60000002384,117665.826,117652.69999998808,117682.493,120815.889,,white
,Fixation,canvas.Screen,3_30_0_0,2022-03-01T10:25:50.384Z,,,,0,V,1516.6970000000001,timeout,,,,122318.30000001192,122315.919,120799.222,120785.60000002384,120815.889,122332.586,,white
,Stimulus,canvas.Screen,3_30_0_1,2022-03-01T10:25:50.484Z,,,,0,V,100.00200000000768,timeout,,,,122418.19999998808,122415.921,122315.919,122318.5,122332.586,122432.588,,white
,Reaction,canvas.Screen,3_30_0_2,2022-03-01T10:25:51.984Z,,,,0,V,1500.0299999999988,timeout,,,,123918.5,123915.951,122415.921,122418.39999997616,122432.588,123932.618,,white
,Trial,flow.Sequence,3_30_0,2022-03-01T10:25:51.984Z,,,,0,V,3100.0620000000054,completion,,,,123918.89999997616,123915.951,120799.222,120785.5,120815.889,123932.618,,white
,Frame,canvas.Frame,3_30,2022-03-01T10:25:51.984Z,,,,0,V,3103.0109999761626,,,,,123919.10000002384,123918.89999997616,120799.222,120784.80000001192,120815.889,123949.285,,white
,Fixation,canvas.Screen,3_31_0_0,2022-03-01T10:25:54.001Z,,,,1,VA,2000.0399999999936,timeout,,,,125935.19999998808,125932.658,123932.618,123920,123949.285,125949.325,,white
,Stimulus,canvas.Screen,3_31_0_1,2022-03-01T10:25:54.100Z,,,,1,VA,100.00200000000768,timeout,,,,126034.69999998808,126032.66,125932.658,125935.5,125949.325,126049.327,,white
,Reaction,canvas.Screen,3_31_0_2,2022-03-01T10:25:55.601Z,,,,1,VA,1500.0299999999988,timeout,,,,127535,127532.69,126032.66,126034.80000001192,126049.327,127549.357,,white
,Trial,flow.Sequence,3_31_0,2022-03-01T10:25:55.601Z,,,,1,VA,3583.404999999999,completion,,,,127535.30000001192,127532.69,123932.618,123919.89999997616,123949.285,127549.357,,white
,Frame,canvas.Frame,3_31,2022-03-01T10:25:55.601Z,,,,1,VA,3586.0150000119174,,,,,127535.39999997616,127535.30000001192,123932.618,123919.10000002384,123949.285,127566.024,,white
,Fixation,canvas.Screen,3_32_0_0,2022-03-01T10:25:57.667Z,,,,0,V,2050.0409999999974,timeout,,,,129601.69999998808,129599.398,127549.357,127536.39999997616,127566.024,129616.065,,white
,Stimulus,canvas.Screen,3_32_0_1,2022-03-01T10:25:57.766Z,,,,0,V,100.00199999999313,timeout,,,,129700.60000002384,129699.4,129599.398,129602,129616.065,129716.067,,white
,Reaction,canvas.Screen,3_32_0_2,2022-03-01T10:25:59.267Z,,,,0,V,1500.0300000000134,timeout,,,,131201.5,131199.43,129699.4,129700.80000001192,129716.067,131216.097,,white
,Trial,flow.Sequence,3_32_0,2022-03-01T10:25:59.268Z,,,,0,V,3633.405999999988,completion,,,,131201.80000001192,131199.43,127549.357,127536.39999997616,127566.024,131216.097,,white
,Frame,canvas.Frame,3_32,2022-03-01T10:25:59.268Z,,,,0,V,3635.8759999761533,,,,,131202,131201.89999997616,127549.357,127535.60000002384,127566.024,131232.764,,white
,Fixation,canvas.Screen,3_33_0_0,2022-03-01T10:26:00.984Z,,,,1,VA,1700.0340000000142,timeout,,,,132918.10000002384,132916.131,131216.097,131203,131232.764,132932.798,,white
,Stimulus,canvas.Screen,3_33_0_1,2022-03-01T10:26:01.084Z,,,,1,VA,100.00199999997858,timeout,,,,133018.39999997616,133016.133,132916.131,132918.30000001192,132932.798,133032.8,,white
,Reaction,canvas.Screen,3_33_0_2,2022-03-01T10:26:02.584Z,,,,1,VA,1500.0299999999988,timeout,,,,134518.60000002384,134516.163,133016.133,133018.69999998808,133032.8,134532.83,,white
,Trial,flow.Sequence,3_33_0,2022-03-01T10:26:02.585Z,,,,1,VA,3283.399000000005,completion,,,,134518.80000001192,134516.163,131216.097,131202.89999997616,131232.764,134532.83,,white
,Frame,canvas.Frame,3_33,2022-03-01T10:26:02.585Z,,,,1,VA,3286.1359999761626,,,,,134519,134518.89999997616,131216.097,131202.10000002384,131232.764,134566.164,,white
,Fixation,canvas.Screen,3_34_0_0,2022-03-01T10:26:05.051Z,,,,1,VA,2433.3820000000123,timeout,,,,136985.39999997616,136982.879,134532.83,134520,134566.164,136999.546,,white
,Stimulus,canvas.Screen,3_34_0_1,2022-03-01T10:26:05.150Z,,,,1,VA,100.00200000000768,timeout,,,,137084.69999998808,137082.881,136982.879,136985.69999998808,136999.546,137099.548,,white
,Reaction,canvas.Screen,3_34_0_2,2022-03-01T10:26:06.651Z,,,,1,VA,1500.0299999999988,timeout,,,,138585.5,138582.911,137082.881,137084.89999997616,137099.548,138599.578,,white
,Trial,flow.Sequence,3_34_0,2022-03-01T10:26:06.652Z,,,,1,VA,4016.747000000003,completion,,,,138585.80000001192,138582.911,134532.83,134519.80000001192,134566.164,138599.578,,white
,Frame,canvas.Frame,3_34,2022-03-01T10:26:06.652Z,,,,1,VA,4019.636000011931,,,,,138586,138585.80000001192,134532.83,134519.10000002384,134566.164,138616.245,,white
,Fixation,canvas.Screen,3_35_0_0,2022-03-01T10:26:08.918Z,,,,0,V,2250.045000000013,timeout,,,,140851.80000001192,140849.623,138599.578,138587,138616.245,140866.29,,white
,Stimulus,canvas.Screen,3_35_0_1,2022-03-01T10:26:09.017Z,,,,0,V,100.00199999997858,timeout,,,,140950.69999998808,140949.625,140849.623,140852,140866.29,140966.292,,white
,Reaction,canvas.Screen,3_35_0_2,2022-03-01T10:26:10.518Z,,,,0,V,1500.0299999999988,timeout,,,,142451.89999997616,142449.655,140949.625,140950.89999997616,140966.292,142466.322,,white
,Trial,flow.Sequence,3_35_0,2022-03-01T10:26:10.518Z,,,,0,V,3833.4100000000035,completion,,,,142452.10000002384,142449.655,138599.578,138586.89999997616,138616.245,142466.322,,white
,Frame,canvas.Frame,3_35,2022-03-01T10:26:10.518Z,,,,0,V,3835.9549999880837,,,,,142452.30000001192,142452.19999998808,138599.578,138586.19999998808,138616.245,142482.989,,white
,Fixation,canvas.Screen,3_36_0_0,2022-03-01T10:26:12.968Z,,,,1,VA,2433.3820000000123,timeout,,,,144901.80000001192,144899.704,142466.322,142453.39999997616,142482.989,144916.371,,white
,Stimulus,canvas.Screen,3_36_0_1,2022-03-01T10:26:13.068Z,,,,1,VA,100.00199999997858,timeout,,,,145002.39999997616,144999.706,144899.704,144902,144916.371,145016.373,,white
,Reaction,canvas.Screen,3_36_0_2,2022-03-01T10:26:14.568Z,,,,1,VA,1500.0299999999988,timeout,,,,146502.30000001192,146499.736,144999.706,145002.60000002384,145016.373,146516.403,,white
,Trial,flow.Sequence,3_36_0,2022-03-01T10:26:14.569Z,,,,1,VA,4016.747000000003,completion,,,,146502.60000002384,146499.736,142466.322,142453.19999998808,142482.989,146516.403,,white
,Frame,canvas.Frame,3_36,2022-03-01T10:26:14.569Z,,,,1,VA,4019.7109999880777,,,,,146502.80000001192,146502.69999998808,142466.322,142452.39999997616,142482.989,146549.737,,white
,Fixation,canvas.Screen,3_37_0_0,2022-03-01T10:26:16.485Z,,,,1,A,1883.3710000000137,timeout,,,,148419,148416.441,146516.403,146503.69999998808,146549.737,148433.108,,grey
,Stimulus,canvas.Screen,3_37_0_1,2022-03-01T10:26:16.585Z,,,,1,A,100.00199999997858,timeout,,,,148518.39999997616,148516.443,148416.441,148419.19999998808,148433.108,148533.11,,grey
,Reaction,canvas.Screen,3_37_0_2,2022-03-01T10:26:18.084Z,,,,1,A,1500.030000000028,timeout,,,,150018.19999998808,150016.473,148516.443,148518.5,148533.11,150033.14,,grey
,Trial,flow.Sequence,3_37_0,2022-03-01T10:26:18.085Z,,,,1,A,3466.7360000000044,completion,,,,150018.39999997616,150016.473,146516.403,146503.60000002384,146549.737,150033.14,,grey
,Frame,canvas.Frame,3_37,2022-03-01T10:26:18.085Z,,,,1,A,3468.7630000000063,,,,,150018.60000002384,150018.5,146516.403,146502.89999997616,146549.737,150049.807,,grey
,Fixation,canvas.Screen,3_38_0_0,2022-03-01T10:26:20.569Z,,,,1,A,2466.715999999986,timeout,,,,152502.30000001192,152499.856,150033.14,150019.60000002384,150049.807,152516.523,,grey
,Stimulus,canvas.Screen,3_38_0_1,2022-03-01T10:26:20.668Z,,,,1,A,100.00200000000768,timeout,,,,152601.39999997616,152599.858,152499.856,152502.5,152516.523,152616.525,,grey
,Reaction,canvas.Screen,3_38_0_2,2022-03-01T10:26:22.169Z,,,,1,A,1500.0299999999988,timeout,,,,154102.60000002384,154099.888,152599.858,152601.60000002384,152616.525,154116.555,,grey
,Trial,flow.Sequence,3_38_0,2022-03-01T10:26:22.169Z,,,,1,A,4050.0810000000056,completion,,,,154103,154099.888,150033.14,150019.60000002384,150049.807,154116.555,,grey
,Frame,canvas.Frame,3_38,2022-03-01T10:26:22.170Z,,,,1,A,4053.3929999880784,,,,,154103.39999997616,154103.19999998808,150033.14,150018.80000001192,150049.807,154133.222,,grey
,Fixation,canvas.Screen,3_39_0_0,2022-03-01T10:26:24.134Z,,,,1,VA,1950.0389999999898,timeout,,,,156067.69999998808,156066.594,154116.555,154104.80000001192,154133.222,156083.261,,white
,Stimulus,canvas.Screen,3_39_0_1,2022-03-01T10:26:24.234Z,,,,1,VA,100.00200000000768,timeout,,,,156167.80000001192,156166.596,156066.594,156067.80000001192,156083.261,156183.263,,white
,Reaction,canvas.Screen,3_39_0_2,2022-03-01T10:26:25.735Z,,,,1,VA,1500.0299999999988,timeout,,,,157668.80000001192,157666.626,156166.596,156167.89999997616,156183.263,157683.293,,white
,Trial,flow.Sequence,3_39_0,2022-03-01T10:26:25.736Z,,,,1,VA,3533.4039999999804,completion,,,,157669.10000002384,157666.626,154116.555,154104.80000001192,154133.222,157683.293,,white
,Frame,canvas.Frame,3_39,2022-03-01T10:26:25.736Z,,,,1,VA,3535.97799998807,,,,,157669.39999997616,157669.19999998808,154116.555,154103.5,154133.222,157699.96,,white
,Fixation,canvas.Screen,3_40_0_0,2022-03-01T10:26:28.202Z,,,,1,A,2450.048999999999,timeout,,,,160135.80000001192,160133.342,157683.293,157670.30000001192,157699.96,160150.009,,grey
,Stimulus,canvas.Screen,3_40_0_1,2022-03-01T10:26:28.301Z,,,,1,A,100.00200000000768,timeout,,,,160235,160233.344,160133.342,160136,160150.009,160250.011,,grey
,Reaction,canvas.Screen,3_40_0_2,2022-03-01T10:26:29.802Z,,,,1,A,1500.0299999999988,timeout,,,,161735.80000001192,161733.374,160233.344,160235.19999998808,160250.011,161750.041,,grey
,Trial,flow.Sequence,3_40_0,2022-03-01T10:26:29.803Z,,,,1,A,4033.414000000019,completion,,,,161736.19999998808,161733.374,157683.293,157670.19999998808,157699.96,161750.041,,grey
,Frame,canvas.Frame,3_40,2022-03-01T10:26:29.803Z,,,,1,A,4036.239999988087,,,,,161736.30000001192,161736.19999998808,157683.293,157669.39999997616,157699.96,161766.708,,grey
,Fixation,canvas.Screen,3_41_0_0,2022-03-01T10:26:32.251Z,,,,1,A,2433.3819999999832,timeout,,,,164184.5,164183.423,161750.041,161737.30000001192,161766.708,164200.09,,grey
,Stimulus,canvas.Screen,3_41_0_1,2022-03-01T10:26:32.352Z,,,,1,A,100.00200000000768,timeout,,,,164285.69999998808,164283.425,164183.423,164184.60000002384,164200.09,164300.092,,grey
,Reaction,canvas.Screen,3_41_0_2,2022-03-01T10:26:33.852Z,,,,1,A,1500.0299999999988,timeout,,,,165785.19999998808,165783.455,164283.425,164285.80000001192,164300.092,165800.122,,grey
,Trial,flow.Sequence,3_41_0,2022-03-01T10:26:33.852Z,,,,1,A,4016.746999999974,completion,,,,165785.5,165783.455,161750.041,161737.19999998808,161766.708,165800.122,,grey
,Frame,canvas.Frame,3_41,2022-03-01T10:26:33.852Z,,,,1,A,4018.8920000238286,,,,,165785.60000002384,165785.60000002384,161750.041,161736.39999997616,161766.708,165816.789,,grey
,Fixation,canvas.Screen,3_42_0_0,2022-03-01T10:26:36.219Z,,,,0,V,2350.0470000000205,timeout,,,,168152.69999998808,168150.169,165800.122,165786.30000001192,165816.789,168166.836,,white
,Stimulus,canvas.Screen,3_42_0_1,2022-03-01T10:26:36.318Z,,,,0,V,100.00199999997858,timeout,,,,168251.69999998808,168250.171,168150.169,168152.89999997616,168166.836,168266.838,,white
,Reaction,canvas.Screen,3_42_0_2,2022-03-01T10:26:37.819Z,,,,0,V,1500.0299999999988,timeout,,,,169752.60000002384,169750.201,168250.171,168252,168266.838,169766.868,,white
,Trial,flow.Sequence,3_42_0,2022-03-01T10:26:37.820Z,,,,0,V,3933.412000000011,completion,,,,169752.89999997616,169750.201,165800.122,165786.30000001192,165816.789,169766.868,,white
,Frame,canvas.Frame,3_42,2022-03-01T10:26:37.820Z,,,,0,V,3936.2110000000102,,,,,169753,169753,165800.122,165785.69999998808,165816.789,169783.535,,white
,Fixation,canvas.Screen,3_43_0_0,2022-03-01T10:26:40.286Z,,,,0,V,2450.048999999999,timeout,,,,172219.30000001192,172216.917,169766.868,169753.89999997616,169783.535,172233.584,,white
,Stimulus,canvas.Screen,3_43_0_1,2022-03-01T10:26:40.386Z,,,,0,V,100.00200000000768,timeout,,,,172319.60000002384,172316.919,172216.917,172219.5,172233.584,172333.586,,white
,Reaction,canvas.Screen,3_43_0_2,2022-03-01T10:26:41.885Z,,,,0,V,1500.0299999999988,timeout,,,,173818.60000002384,173816.949,172316.919,172320.10000002384,172333.586,173833.616,,white
,Trial,flow.Sequence,3_43_0,2022-03-01T10:26:41.886Z,,,,0,V,4033.4139999999898,completion,,,,173818.89999997616,173816.949,169766.868,169753.89999997616,169783.535,173833.616,,white
,Frame,canvas.Frame,3_43,2022-03-01T10:26:41.886Z,,,,0,V,4035.4649999999965,,,,,173819.10000002384,173819,169766.868,169753.19999998808,169783.535,173850.283,,white
,Fixation,canvas.Screen,3_44_0_0,2022-03-01T10:26:44.052Z,,,,1,A,2150.043000000005,timeout,,,,175985.60000002384,175983.659,173833.616,173820,173850.283,176000.326,,grey
,Stimulus,canvas.Screen,3_44_0_1,2022-03-01T10:26:44.153Z,,,,1,A,100.00200000000768,timeout,,,,176085.60000002384,176083.661,175983.659,175985.69999998808,176000.326,176100.328,,grey
,Reaction,canvas.Screen,3_44_0_2,2022-03-01T10:26:45.653Z,,,,1,A,1500.0299999999988,timeout,,,,177586,177583.691,176083.661,176085.80000001192,176100.328,177600.358,,grey
,Trial,flow.Sequence,3_44_0,2022-03-01T10:26:45.653Z,,,,1,A,3733.407999999996,completion,,,,177586.39999997616,177583.691,173833.616,173820,173850.283,177600.358,,grey
,Frame,canvas.Frame,3_44,2022-03-01T10:26:45.654Z,,,,1,A,3736.217000000004,,,,,177586.60000002384,177586.5,173833.616,173819.19999998808,173850.283,177617.025,,grey
,Fixation,canvas.Screen,3_45_0_0,2022-03-01T10:26:47.919Z,,,,1,A,2250.045000000013,timeout,,,,179852.5,179850.403,177600.358,177587.69999998808,177617.025,179867.07,,grey
,Stimulus,canvas.Screen,3_45_0_1,2022-03-01T10:26:48.020Z,,,,1,A,100.00199999997858,timeout,,,,179952.89999997616,179950.405,179850.403,179852.69999998808,179867.07,179967.072,,grey
,Reaction,canvas.Screen,3_45_0_2,2022-03-01T10:26:49.519Z,,,,1,A,1500.030000000028,timeout,,,,181452.30000001192,181450.435,179950.405,179953.19999998808,179967.072,181467.102,,grey
,Trial,flow.Sequence,3_45_0,2022-03-01T10:26:49.520Z,,,,1,A,3833.4100000000035,completion,,,,181452.60000002384,181450.435,177600.358,177587.60000002384,177617.025,181467.102,,grey
,Frame,canvas.Frame,3_45,2022-03-01T10:26:49.520Z,,,,1,A,3835.674999988085,,,,,181452.89999997616,181452.69999998808,177600.358,177586.80000001192,177617.025,181483.769,,grey
,Fixation,canvas.Screen,3_46_0_0,2022-03-01T10:26:51.653Z,,,,1,A,2116.7090000000026,timeout,,,,183586.30000001192,183583.811,181467.102,181453.89999997616,181483.769,183600.478,,grey
,Stimulus,canvas.Screen,3_46_0_1,2022-03-01T10:26:51.753Z,,,,1,A,100.00200000000768,timeout,,,,183686,183683.813,183583.811,183586.5,183600.478,183700.48,,grey
,Reaction,canvas.Screen,3_46_0_2,2022-03-01T10:26:53.252Z,,,,1,A,1500.0299999999988,timeout,,,,185185.10000002384,185183.843,183683.813,183686.19999998808,183700.48,185200.51,,grey
,Trial,flow.Sequence,3_46_0,2022-03-01T10:26:53.252Z,,,,1,A,3700.0739999999932,completion,,,,185185.30000001192,185183.843,181467.102,181453.80000001192,181483.769,185200.51,,grey
,Frame,canvas.Frame,3_46,2022-03-01T10:26:53.253Z,,,,1,A,3701.630999976158,,,,,185185.5,185185.39999997616,181467.102,181453,181483.769,185217.177,,grey
,Fixation,canvas.Screen,3_47_0_0,2022-03-01T10:26:54.953Z,,,,0,V,1683.3669999999984,timeout,,,,186885.89999997616,186883.877,185200.51,185186.39999997616,185217.177,186900.544,,white
,Stimulus,canvas.Screen,3_47_0_1,2022-03-01T10:26:55.053Z,,,,0,V,100.00200000000768,timeout,,,,186985.89999997616,186983.879,186883.877,186886.10000002384,186900.544,187000.546,,white
,Reaction,canvas.Screen,3_47_0_2,2022-03-01T10:26:56.554Z,,,,0,V,1500.0299999999988,timeout,,,,188486.60000002384,188483.909,186983.879,186986.10000002384,187000.546,188500.576,,white
,Trial,flow.Sequence,3_47_0,2022-03-01T10:26:56.554Z,,,,0,V,3266.732000000018,completion,,,,188486.89999997616,188483.909,185200.51,185186.30000001192,185217.177,188500.576,,white
,Frame,canvas.Frame,3_47,2022-03-01T10:26:56.554Z,,,,0,V,3269.923000023846,,,,,188487.10000002384,188487.10000002384,185200.51,185185.60000002384,185217.177,188517.243,,white
,Fixation,canvas.Screen,3_48_0_0,2022-03-01T10:26:58.237Z,,,,0,V,1666.7000000000116,timeout,,,,190169.60000002384,190167.276,188500.576,188488.19999998808,188517.243,190183.943,,white
,Stimulus,canvas.Screen,3_48_0_1,2022-03-01T10:26:58.336Z,,,,0,V,100.00200000000768,timeout,,,,190268.89999997616,190267.278,190167.276,190169.80000001192,190183.943,190283.945,,white
,Reaction,canvas.Screen,3_48_0_2,2022-03-01T10:26:59.837Z,,,,0,V,1500.0299999999988,timeout,,,,191769.39999997616,191767.308,190267.278,190269,190283.945,191783.975,,white
,Trial,flow.Sequence,3_48_0,2022-03-01T10:26:59.837Z,,,,0,V,3250.0650000000023,completion,,,,191769.60000002384,191767.308,188500.576,188488,188517.243,191783.975,,white
,Frame,canvas.Frame,3_48,2022-03-01T10:26:59.837Z,,,,0,V,3252.357000023854,,,,,191769.80000001192,191769.60000002384,188500.576,188487.30000001192,188517.243,191800.642,,white
,Fixation,canvas.Screen,3_49_0_0,2022-03-01T10:27:02.287Z,,,,1,VA,2433.3820000000123,timeout,,,,194219.69999998808,194217.357,191783.975,191770.60000002384,191800.642,194234.024,,white
,Stimulus,canvas.Screen,3_49_0_1,2022-03-01T10:27:02.387Z,,,,1,VA,100.00200000000768,timeout,,,,194319.69999998808,194317.359,194217.357,194220,194234.024,194334.026,,white
,Reaction,canvas.Screen,3_49_0_2,2022-03-01T10:27:03.886Z,,,,1,VA,1500.0299999999988,timeout,,,,195818.80000001192,195817.389,194317.359,194319.89999997616,194334.026,195834.056,,white
,Trial,flow.Sequence,3_49_0,2022-03-01T10:27:03.887Z,,,,1,VA,4016.747000000003,completion,,,,195819.10000002384,195817.389,191783.975,191770.60000002384,191800.642,195834.056,,white
,Frame,canvas.Frame,3_49,2022-03-01T10:27:03.887Z,,,,1,VA,4018.5579999880865,,,,,195819.30000001192,195819.19999998808,191783.975,191769.89999997616,191800.642,195850.723,,white
,Fixation,canvas.Screen,3_50_0_0,2022-03-01T10:27:05.420Z,,,,1,VA,1516.6970000000147,timeout,,,,197352.80000001192,197350.753,195834.056,195820.39999997616,195850.723,197367.42,,white
,Stimulus,canvas.Screen,3_50_0_1,2022-03-01T10:27:05.533Z,,,,1,VA,100.00199999997858,timeout,,,,197465.39999997616,197450.755,197350.753,197353.10000002384,197367.42,197467.422,,white
,Reaction,canvas.Screen,3_50_0_2,2022-03-01T10:27:07.021Z,,,,1,VA,1500.0299999999988,timeout,,,,198953.5,198950.785,197450.755,197465.60000002384,197467.422,198967.452,,white
,Trial,flow.Sequence,3_50_0,2022-03-01T10:27:07.021Z,,,,1,VA,3100.0620000000054,completion,,,,198953.80000001192,198950.785,195834.056,195820.30000001192,195850.723,198967.452,,white
,Frame,canvas.Frame,3_50,2022-03-01T10:27:07.021Z,,,,1,VA,3103.077000011923,,,,,198954,198953.80000001192,195834.056,195819.39999997616,195850.723,198984.119,,white
,Fixation,canvas.Screen,3_51_0_0,2022-03-01T10:27:09.221Z,,,,1,A,2183.3770000000077,timeout,,,,201153.30000001192,201150.829,198967.452,198955,198984.119,201167.496,,grey
,Stimulus,canvas.Screen,3_51_0_1,2022-03-01T10:27:09.320Z,,,,1,A,100.00199999997858,timeout,,,,201252.80000001192,201250.831,201150.829,201153.39999997616,201167.496,201267.498,,grey
,Reaction,canvas.Screen,3_51_0_2,2022-03-01T10:27:10.821Z,,,,1,A,1500.0299999999988,timeout,,,,202753,202750.861,201250.831,201253.19999998808,201267.498,202767.528,,grey
,Trial,flow.Sequence,3_51_0,2022-03-01T10:27:10.821Z,,,,1,A,3766.7419999999984,completion,,,,202753.30000001192,202750.861,198967.452,198954.89999997616,198984.119,202767.528,,grey
,Frame,canvas.Frame,3_51,2022-03-01T10:27:10.821Z,,,,1,A,3769.181000011915,,,,,202753.39999997616,202753.30000001192,198967.452,198954,198984.119,202784.195,,grey
,Fixation,canvas.Screen,3_52_0_0,2022-03-01T10:27:12.903Z,,,,1,A,2066.707999999984,timeout,,,,204835.5,204834.236,202767.528,202754.30000001192,202784.195,204850.903,,grey
,Stimulus,canvas.Screen,3_52_0_1,2022-03-01T10:27:13.029Z,,,,1,A,116.66899999999441,timeout,,,,204961.69999998808,204950.905,204834.236,204835.69999998808,204850.903,204967.572,,grey
,Reaction,canvas.Screen,3_52_0_2,2022-03-01T10:27:14.521Z,,,,1,A,1500.030000000028,timeout,,,,206453.5,206450.935,204950.905,204961.80000001192,204967.572,206467.602,,grey
,Trial,flow.Sequence,3_52_0,2022-03-01T10:27:14.522Z,,,,1,A,3666.7399999999907,completion,,,,206453.80000001192,206450.935,202767.528,202754.19999998808,202784.195,206467.602,,grey
,Frame,canvas.Frame,3_52,2022-03-01T10:27:14.522Z,,,,1,A,3669.704999976151,,,,,206454,206453.89999997616,202767.528,202753.5,202784.195,206484.269,,grey
,Fixation,canvas.Screen,3_53_0_0,2022-03-01T10:27:16.754Z,,,,1,A,2216.7110000000102,timeout,,,,208686.5,208684.313,206467.602,206455.10000002384,206484.269,208700.98,,grey
,Stimulus,canvas.Screen,3_53_0_1,2022-03-01T10:27:16.855Z,,,,1,A,100.00199999997858,timeout,,,,208787.10000002384,208784.315,208684.313,208686.69999998808,208700.98,208800.982,,grey
,Reaction,canvas.Screen,3_53_0_2,2022-03-01T10:27:18.354Z,,,,1,A,1500.0299999999988,timeout,,,,210286,210284.345,208784.315,208787.30000001192,208800.982,210301.012,,grey
,Trial,flow.Sequence,3_53_0,2022-03-01T10:27:18.354Z,,,,1,A,3800.076000000001,completion,,,,210286.30000001192,210284.345,206467.602,206455,206484.269,210301.012,,grey
,Frame,canvas.Frame,3_53,2022-03-01T10:27:18.354Z,,,,1,A,3802.0310000119207,,,,,210286.39999997616,210286.30000001192,206467.602,206454,206484.269,210317.679,,grey
,Fixation,canvas.Screen,3_54_0_0,2022-03-01T10:27:20.355Z,,,,1,VA,1983.3729999999923,timeout,,,,212286.89999997616,212284.385,210301.012,210287.39999997616,210317.679,212301.052,,white
,Stimulus,canvas.Screen,3_54_0_1,2022-03-01T10:27:20.455Z,,,,1,VA,100.00200000000768,timeout,,,,212387.10000002384,212384.387,212284.385,212287.10000002384,212301.052,212401.054,,white
,Reaction,canvas.Screen,3_54_0_2,2022-03-01T10:27:21.953Z,,,,1,VA,1500.0299999999988,timeout,,,,213885.5,213884.417,212384.387,212387.39999997616,212401.054,213901.084,,white
,Trial,flow.Sequence,3_54_0,2022-03-01T10:27:21.954Z,,,,1,VA,3566.737999999983,completion,,,,213885.69999998808,213884.417,210301.012,210287.30000001192,210317.679,213901.084,,white
,Frame,canvas.Frame,3_54,2022-03-01T10:27:21.954Z,,,,1,VA,3568.121000011917,,,,,213886,213885.80000001192,210301.012,210286.60000002384,210317.679,213917.751,,white
,Fixation,canvas.Screen,3_55_0_0,2022-03-01T10:27:24.305Z,,,,0,V,2333.3800000000047,timeout,,,,216236.5,216234.464,213901.084,213886.89999997616,213917.751,216251.131,,white
,Stimulus,canvas.Screen,3_55_0_1,2022-03-01T10:27:24.405Z,,,,0,V,100.00200000000768,timeout,,,,216337,216334.466,216234.464,216236.80000001192,216251.131,216351.133,,white
,Reaction,canvas.Screen,3_55_0_2,2022-03-01T10:27:25.905Z,,,,0,V,1500.0299999999988,timeout,,,,217837.10000002384,217834.496,216334.466,216337.19999998808,216351.133,217851.163,,white
,Trial,flow.Sequence,3_55_0,2022-03-01T10:27:25.905Z,,,,0,V,3916.7450000000244,completion,,,,217837.30000001192,217834.496,213901.084,213886.89999997616,213917.751,217851.163,,white
,Frame,canvas.Frame,3_55,2022-03-01T10:27:25.906Z,,,,0,V,3919.648999976169,,,,,217837.60000002384,217837.39999997616,213901.084,213886,213917.751,217867.83,,white
,Fixation,canvas.Screen,3_56_0_0,2022-03-01T10:27:27.455Z,,,,0,V,1533.3640000000014,timeout,,,,219386.89999997616,219384.527,217851.163,217838.69999998808,217867.83,219401.194,,white
,Stimulus,canvas.Screen,3_56_0_1,2022-03-01T10:27:27.555Z,,,,0,V,100.00200000000768,timeout,,,,219486.69999998808,219484.529,219384.527,219387.19999998808,219401.194,219501.196,,white
,Reaction,canvas.Screen,3_56_0_2,2022-03-01T10:27:29.055Z,,,,0,V,1500.0299999999988,timeout,,,,220986.60000002384,220984.559,219484.529,219486.89999997616,219501.196,221001.226,,white
,Trial,flow.Sequence,3_56_0,2022-03-01T10:27:29.055Z,,,,0,V,3116.729000000021,completion,,,,220986.80000001192,220984.559,217851.163,217838.60000002384,217867.83,221001.226,,white
,Frame,canvas.Frame,3_56,2022-03-01T10:27:29.055Z,,,,0,V,3119.069999976171,,,,,220987,220986.89999997616,217851.163,217837.60000002384,217867.83,221017.893,,white
,Fixation,canvas.Screen,3_57_0_0,2022-03-01T10:27:30.822Z,,,,0,V,1750.0350000000035,timeout,,,,222753.80000001192,222751.261,221001.226,220987.89999997616,221017.893,222767.928,,white
,Stimulus,canvas.Screen,3_57_0_1,2022-03-01T10:27:30.922Z,,,,0,V,100.00199999997858,timeout,,,,222853.39999997616,222851.263,222751.261,222753.89999997616,222767.928,222867.93,,white
,Reaction,canvas.Screen,3_57_0_2,2022-03-01T10:27:32.422Z,,,,0,V,1500.0299999999988,timeout,,,,224353.30000001192,224351.293,222851.263,222853.69999998808,222867.93,224367.96,,white
,Trial,flow.Sequence,3_57_0,2022-03-01T10:27:32.422Z,,,,0,V,3333.399999999994,completion,,,,224353.60000002384,224351.293,221001.226,220987.89999997616,221017.893,224367.96,,white
,Frame,canvas.Frame,3_57,2022-03-01T10:27:32.422Z,,,,0,V,3335.806999988068,,,,,224353.80000001192,224353.69999998808,221001.226,220987.10000002384,221017.893,224384.627,,white
,Fixation,canvas.Screen,3_58_0_0,2022-03-01T10:27:34.455Z,,,,1,VA,2016.7069999999949,timeout,,,,226387.19999998808,226384.667,224367.96,224356,224384.627,226401.334,,white
,Stimulus,canvas.Screen,3_58_0_1,2022-03-01T10:27:34.554Z,,,,1,VA,100.00200000000768,timeout,,,,226486,226484.669,226384.667,226387.39999997616,226401.334,226501.336,,white
,Reaction,canvas.Screen,3_58_0_2,2022-03-01T10:27:36.055Z,,,,1,VA,1500.0299999999988,timeout,,,,227986.39999997616,227984.699,226484.669,226486.19999998808,226501.336,228001.366,,white
,Trial,flow.Sequence,3_58_0,2022-03-01T10:27:36.055Z,,,,1,VA,3600.0719999999856,completion,,,,227986.69999998808,227984.699,224367.96,224355.89999997616,224384.627,228001.366,,white
,Frame,canvas.Frame,3_58,2022-03-01T10:27:36.055Z,,,,1,VA,3602.0729999880714,,,,,227986.80000001192,227986.69999998808,224367.96,224353.89999997616,224384.627,228018.033,,white
,Fixation,canvas.Screen,3_59_0_0,2022-03-01T10:27:38.572Z,,,,1,A,2500.0500000000175,timeout,,,,230503.60000002384,230501.416,228001.366,227987.80000001192,228018.033,230518.083,,grey
,Stimulus,canvas.Screen,3_59_0_1,2022-03-01T10:27:38.672Z,,,,1,A,100.00199999997858,timeout,,,,230603.19999998808,230601.418,230501.416,230503.69999998808,230518.083,230618.085,,grey
,Reaction,canvas.Screen,3_59_0_2,2022-03-01T10:27:40.172Z,,,,1,A,1500.0299999999988,timeout,,,,232103.5,232101.448,230601.418,230603.39999997616,230618.085,232118.115,,grey
,Trial,flow.Sequence,3_59_0,2022-03-01T10:27:40.172Z,,,,1,A,4083.415000000008,completion,,,,232103.69999998808,232101.448,228001.366,227987.69999998808,228018.033,232118.115,,grey
,Frame,canvas.Frame,3_59,2022-03-01T10:27:40.172Z,,,,1,A,4085.767000011925,,,,,232104,232103.80000001192,228001.366,227986.89999997616,228018.033,232134.782,,grey
,Fixation,canvas.Screen,3_60_0_0,2022-03-01T10:27:42.622Z,,,,1,A,2433.3819999999832,timeout,,,,234553.5,234551.497,232118.115,232104.89999997616,232134.782,234568.164,,grey
,Stimulus,canvas.Screen,3_60_0_1,2022-03-01T10:27:42.723Z,,,,1,A,100.00200000000768,timeout,,,,234654.19999998808,234651.499,234551.497,234553.69999998808,234568.164,234668.166,,grey
,Reaction,canvas.Screen,3_60_0_2,2022-03-01T10:27:44.222Z,,,,1,A,1500.0299999999988,timeout,,,,236153.10000002384,236151.529,234651.499,234654.39999997616,234668.166,236168.196,,grey
,Trial,flow.Sequence,3_60_0,2022-03-01T10:27:44.222Z,,,,1,A,4016.747000000003,completion,,,,236153.30000001192,236151.529,232118.115,232104.80000001192,232134.782,236168.196,,grey
,Frame,canvas.Frame,3_60,2022-03-01T10:27:44.222Z,,,,1,A,4018.5180000119144,,,,,236153.5,236153.30000001192,232118.115,232104.10000002384,232134.782,236184.863,,grey
,Fixation,canvas.Screen,3_61_0_0,2022-03-01T10:27:45.774Z,,,,0,V,1533.3640000000014,timeout,,,,237705.39999997616,237701.56,236168.196,236154.5,236184.863,237718.227,,white
,Stimulus,canvas.Screen,3_61_0_1,2022-03-01T10:27:45.873Z,,,,0,V,100.00199999997858,timeout,,,,237804.30000001192,237801.562,237701.56,237705.69999998808,237718.227,237818.229,,white
,Reaction,canvas.Screen,3_61_0_2,2022-03-01T10:27:47.372Z,,,,0,V,1500.0299999999988,timeout,,,,239303.80000001192,239301.592,237801.562,237804.5,237818.229,239318.259,,white
,Trial,flow.Sequence,3_61_0,2022-03-01T10:27:47.373Z,,,,0,V,3116.728999999992,completion,,,,239304.10000002384,239301.592,236168.196,236154.5,236184.863,239318.259,,white
,Frame,canvas.Frame,3_61,2022-03-01T10:27:47.373Z,,,,0,V,3119.336999988067,,,,,239304.30000001192,239304.19999998808,236168.196,236153.69999998808,236184.863,239334.926,,white
,Fixation,canvas.Screen,3_62_0_0,2022-03-01T10:27:49.373Z,,,,0,V,1983.3729999999923,timeout,,,,241304.30000001192,241301.632,239318.259,239305.19999998808,239334.926,241318.299,,white
,Stimulus,canvas.Screen,3_62_0_1,2022-03-01T10:27:49.472Z,,,,0,V,100.00200000000768,timeout,,,,241403.39999997616,241401.634,241301.632,241304.39999997616,241318.299,241418.301,,white
,Reaction,canvas.Screen,3_62_0_2,2022-03-01T10:27:50.972Z,,,,0,V,1500.0299999999988,timeout,,,,242903,242901.664,241401.634,241403.60000002384,241418.301,242918.331,,white
,Trial,flow.Sequence,3_62_0,2022-03-01T10:27:50.972Z,,,,0,V,3566.737999999983,completion,,,,242903.30000001192,242901.664,239318.259,239305.10000002384,239334.926,242918.331,,white
,Frame,canvas.Frame,3_62,2022-03-01T10:27:50.972Z,,,,0,V,3568.374000011914,,,,,242903.5,242903.30000001192,239318.259,239304.39999997616,239334.926,242934.998,,white
,Fixation,canvas.Screen,3_63_0_0,2022-03-01T10:27:53.239Z,,,,0,V,2250.045000000013,timeout,,,,245170.69999998808,245168.376,242918.331,242904.5,242934.998,245185.043,,white
,Stimulus,canvas.Screen,3_63_0_1,2022-03-01T10:27:53.340Z,,,,0,V,100.00200000000768,timeout,,,,245270.69999998808,245268.378,245168.376,245170.89999997616,245185.043,245285.045,,white
,Reaction,canvas.Screen,3_63_0_2,2022-03-01T10:27:54.839Z,,,,0,V,1500.0299999999988,timeout,,,,246770.10000002384,246768.408,245268.378,245270.89999997616,245285.045,246785.075,,white
,Trial,flow.Sequence,3_63_0,2022-03-01T10:27:54.839Z,,,,0,V,3833.4100000000035,completion,,,,246770.39999997616,246768.408,242918.331,242904.39999997616,242934.998,246785.075,,white
,Frame,canvas.Frame,3_63,2022-03-01T10:27:54.839Z,,,,0,V,3835.5020000000077,,,,,246770.60000002384,246770.5,242918.331,242903.60000002384,242934.998,246801.742,,white
,Fixation,canvas.Screen,3_64_0_0,2022-03-01T10:27:57.239Z,,,,1,A,2383.380999999994,timeout,,,,249170.39999997616,249168.456,246785.075,246771.5,246801.742,249185.123,,grey
,Stimulus,canvas.Screen,3_64_0_1,2022-03-01T10:27:57.340Z,,,,1,A,100.00200000000768,timeout,,,,249270.80000001192,249268.458,249168.456,249170.69999998808,249185.123,249285.125,,grey
,Reaction,canvas.Screen,3_64_0_2,2022-03-01T10:27:58.840Z,,,,1,A,1500.0299999999988,timeout,,,,250770.60000002384,250768.488,249268.458,249271,249285.125,250785.155,,grey
,Trial,flow.Sequence,3_64_0,2022-03-01T10:27:58.840Z,,,,1,A,3966.7460000000137,completion,,,,250770.89999997616,250768.488,246785.075,246771.39999997616,246801.742,250785.155,,grey
,Frame,canvas.Frame,3_64,2022-03-01T10:27:58.840Z,,,,1,A,3969.2580000000016,,,,,250771.10000002384,250771,246785.075,246770.69999998808,246801.742,250801.822,,grey
,Fixation,canvas.Screen,3_65_0_0,2022-03-01T10:28:01.273Z,,,,1,VA,2416.7150000000256,timeout,,,,253204,253201.87,250785.155,250772,250801.822,253218.537,,white
,Stimulus,canvas.Screen,3_65_0_1,2022-03-01T10:28:01.374Z,,,,1,VA,100.00199999997858,timeout,,,,253304.5,253301.872,253201.87,253204.39999997616,253218.537,253318.539,,white
,Reaction,canvas.Screen,3_65_0_2,2022-03-01T10:28:02.873Z,,,,1,VA,1500.0299999999988,timeout,,,,254803.69999998808,254801.902,253301.872,253304.69999998808,253318.539,254818.569,,white
,Trial,flow.Sequence,3_65_0,2022-03-01T10:28:02.873Z,,,,1,VA,4000.0800000000163,completion,,,,254804,254801.902,250785.155,250772,250801.822,254818.569,,white
,Frame,canvas.Frame,3_65,2022-03-01T10:28:02.873Z,,,,1,VA,4002.1780000000144,,,,,254804.19999998808,254804,250785.155,250771.10000002384,250801.822,254835.236,,white
,Fixation,canvas.Screen,3_66_0_0,2022-03-01T10:28:04.806Z,,,,1,A,1916.7049999999872,timeout,,,,256736.89999997616,256735.274,254818.569,254805.10000002384,254835.236,256751.941,,grey
,Stimulus,canvas.Screen,3_66_0_1,2022-03-01T10:28:04.906Z,,,,1,A,100.00200000000768,timeout,,,,256837.30000001192,256835.276,256735.274,256737.10000002384,256751.941,256851.943,,grey
,Reaction,canvas.Screen,3_66_0_2,2022-03-01T10:28:06.407Z,,,,1,A,1500.0299999999988,timeout,,,,258337.89999997616,258335.306,256835.276,256837.5,256851.943,258351.973,,grey
,Trial,flow.Sequence,3_66_0,2022-03-01T10:28:06.407Z,,,,1,A,3500.070000000007,completion,,,,258338.19999998808,258335.306,254818.569,254805,254835.236,258351.973,,grey
,Frame,canvas.Frame,3_66,2022-03-01T10:28:06.408Z,,,,1,A,3503.0640000119165,,,,,258338.39999997616,258338.30000001192,254818.569,254804.30000001192,254835.236,258368.64,,grey
,Fixation,canvas.Screen,3_67_0_0,2022-03-01T10:28:08.123Z,,,,0,V,1700.033999999985,timeout,,,,260054.19999998808,260052.007,258351.973,258339.30000001192,258368.64,260068.674,,white
,Stimulus,canvas.Screen,3_67_0_1,2022-03-01T10:28:08.223Z,,,,0,V,100.00200000000768,timeout,,,,260154.10000002384,260152.009,260052.007,260054.39999997616,260068.674,260168.676,,white
,Reaction,canvas.Screen,3_67_0_2,2022-03-01T10:28:09.723Z,,,,0,V,1500.0299999999988,timeout,,,,261653.60000002384,261652.039,260152.009,260154.30000001192,260168.676,261668.706,,white
,Trial,flow.Sequence,3_67_0,2022-03-01T10:28:09.723Z,,,,0,V,3283.398999999976,completion,,,,261654,261652.039,258351.973,258339.30000001192,258368.64,261668.706,,white
,Frame,canvas.Frame,3_67,2022-03-01T10:28:09.723Z,,,,0,V,3285.460000023828,,,,,261654.30000001192,261654.10000002384,258351.973,258338.5,258368.64,261685.373,,white
,Fixation,canvas.Screen,3_68_0_0,2022-03-01T10:28:11.789Z,,,,1,VA,2050.0409999999974,timeout,,,,263720.10000002384,263718.747,261668.706,261655.19999998808,261685.373,263735.414,,white
,Stimulus,canvas.Screen,3_68_0_1,2022-03-01T10:28:11.890Z,,,,1,VA,100.00200000003679,timeout,,,,263820.8000000119,263818.749,263718.747,263720.39999997616,263735.414,263835.416,,white
,Reaction,canvas.Screen,3_68_0_2,2022-03-01T10:28:13.391Z,,,,1,VA,1500.0299999999697,timeout,,,,265321.39999997616,265318.779,263818.749,263821.10000002384,263835.416,265335.446,,white
,Trial,flow.Sequence,3_68_0,2022-03-01T10:28:13.391Z,,,,1,VA,3633.405999999988,completion,,,,265321.8000000119,265318.779,261668.706,261655.19999998808,261685.373,265335.446,,white
,Frame,canvas.Frame,3_68,2022-03-01T10:28:13.391Z,,,,1,VA,3636.4270000119286,,,,,265322,265321.8000000119,261668.706,261654.30000001192,261685.373,265352.113,,white
,Fixation,canvas.Screen,3_69_0_0,2022-03-01T10:28:15.023Z,,,,1,A,1616.6989999999641,timeout,,,,266953.60000002384,266952.145,265335.446,265322.89999997616,265352.113,266968.812,,grey
,Stimulus,canvas.Screen,3_69_0_1,2022-03-01T10:28:15.124Z,,,,1,A,100.00200000003679,timeout,,,,267054.39999997616,267052.147,266952.145,266953.89999997616,266968.812,267068.814,,grey
,Reaction,canvas.Screen,3_69_0_2,2022-03-01T10:28:16.624Z,,,,1,A,1500.0299999999697,timeout,,,,268554.6999999881,268552.177,267052.147,267054.60000002384,267068.814,268568.844,,grey
,Trial,flow.Sequence,3_69_0,2022-03-01T10:28:16.624Z,,,,1,A,3200.064000000013,completion,,,,268555.10000002384,268552.177,265335.446,265322.89999997616,265352.113,268568.844,,grey
,Frame,canvas.Frame,3_69,2022-03-01T10:28:16.625Z,,,,1,A,3202.9870000238298,,,,,268555.1999999881,268555.10000002384,265335.446,265322.10000002384,265352.113,268585.511,,grey
,Fixation,canvas.Screen,3_70_0_0,2022-03-01T10:28:18.191Z,,,,1,A,1550.0310000000172,timeout,,,,270121.3000000119,270118.875,268568.844,268556.10000002384,268585.511,270135.542,,grey
,Stimulus,canvas.Screen,3_70_0_1,2022-03-01T10:28:18.291Z,,,,1,A,100.00199999997858,timeout,,,,270221.60000002384,270218.877,270118.875,270121.5,270135.542,270235.544,,grey
,Reaction,canvas.Screen,3_70_0_2,2022-03-01T10:28:19.791Z,,,,1,A,1500.030000000028,timeout,,,,271721.5,271718.907,270218.877,270222,270235.544,271735.574,,grey
,Trial,flow.Sequence,3_70_0,2022-03-01T10:28:19.791Z,,,,1,A,3133.396000000008,completion,,,,271721.89999997616,271718.907,268568.844,268556.10000002384,268585.511,271735.574,,grey
,Frame,canvas.Frame,3_70,2022-03-01T10:28:19.792Z,,,,1,A,3136.3889999761595,,,,,271722.10000002384,271721.89999997616,268568.844,268555.3000000119,268585.511,271752.241,,grey
,Fixation,canvas.Screen,3_71_0_0,2022-03-01T10:28:22.108Z,,,,1,VA,2300.046000000031,timeout,,,,274038.10000002384,274035.62,271735.574,271723.10000002384,271752.241,274052.287,,white
,Stimulus,canvas.Screen,3_71_0_1,2022-03-01T10:28:22.207Z,,,,1,VA,100.00199999997858,timeout,,,,274137.60000002384,274135.622,274035.62,274038.3000000119,274052.287,274152.289,,white
,Reaction,canvas.Screen,3_71_0_2,2022-03-01T10:28:23.707Z,,,,1,VA,1500.030000000028,timeout,,,,275637.5,275635.652,274135.622,274137.8000000119,274152.289,275652.319,,white
,Trial,flow.Sequence,3_71_0,2022-03-01T10:28:23.707Z,,,,1,VA,3883.411000000022,completion,,,,275637.89999997616,275635.652,271735.574,271722.89999997616,271752.241,275652.319,,white
,Frame,canvas.Frame,3_71,2022-03-01T10:28:23.708Z,,,,1,VA,3885.658999976178,,,,,275638,275637.89999997616,271735.574,271722.1999999881,271752.241,275668.986,,white
,Fixation,canvas.Screen,3_72_0_0,2022-03-01T10:28:26.024Z,,,,0,V,2300.046000000031,timeout,,,,277954.6999999881,277952.365,275652.319,275639,275668.986,277969.032,,white
,Stimulus,canvas.Screen,3_72_0_1,2022-03-01T10:28:26.125Z,,,,0,V,100.00199999997858,timeout,,,,278054.8000000119,278052.367,277952.365,277954.89999997616,277969.032,278069.034,,white
,Reaction,canvas.Screen,3_72_0_2,2022-03-01T10:28:27.624Z,,,,0,V,1500.030000000028,timeout,,,,279554.10000002384,279552.397,278052.367,278055.10000002384,278069.034,279569.064,,white
,Trial,flow.Sequence,3_72_0,2022-03-01T10:28:27.624Z,,,,0,V,3883.411000000022,completion,,,,279554.3000000119,279552.397,275652.319,275639,275668.986,279569.064,,white
,Frame,canvas.Frame,3_72,2022-03-01T10:28:27.624Z,,,,0,V,3885.413999976183,,,,,279554.5,279554.39999997616,275652.319,275638.10000002384,275668.986,279585.731,,white
,Fixation,canvas.Screen,3_73_0_0,2022-03-01T10:28:29.758Z,,,,0,V,2116.7089999999735,timeout,,,,281688.60000002384,281685.773,279569.064,279555.8000000119,279585.731,281702.44,,white
,Stimulus,canvas.Screen,3_73_0_1,2022-03-01T10:28:29.858Z,,,,0,V,100.00199999997858,timeout,,,,281788.3000000119,281785.775,281685.773,281688.89999997616,281702.44,281802.442,,white
,Reaction,canvas.Screen,3_73_0_2,2022-03-01T10:28:31.358Z,,,,0,V,1500.030000000028,timeout,,,,283288.10000002384,283285.805,281785.775,281788.39999997616,281802.442,283302.472,,white
,Trial,flow.Sequence,3_73_0,2022-03-01T10:28:31.358Z,,,,0,V,3700.073999999964,completion,,,,283288.3000000119,283285.805,279569.064,279555.6999999881,279585.731,283302.472,,white
,Frame,canvas.Frame,3_73,2022-03-01T10:28:31.358Z,,,,0,V,3702.6689999761293,,,,,283288.60000002384,283288.39999997616,279569.064,279554.60000002384,279585.731,283319.139,,white
,Fixation,canvas.Screen,3_74_0_0,2022-03-01T10:28:33.640Z,,,,1,A,2266.7119999999995,timeout,,,,285570.39999997616,285569.184,283302.472,283289.60000002384,283319.139,285585.851,,grey
,Stimulus,canvas.Screen,3_74_0_1,2022-03-01T10:28:33.741Z,,,,1,A,100.00199999997858,timeout,,,,285670.6999999881,285669.186,285569.184,285570.5,285585.851,285685.853,,grey
,Reaction,canvas.Screen,3_74_0_2,2022-03-01T10:28:35.242Z,,,,1,A,1500.0299999999697,timeout,,,,287171.89999997616,287169.216,285669.186,285670.89999997616,285685.853,287185.883,,grey
,Trial,flow.Sequence,3_74_0,2022-03-01T10:28:35.242Z,,,,1,A,3850.07699999999,completion,,,,287172.1999999881,287169.216,283302.472,283289.5,283319.139,287185.883,,grey
,Frame,canvas.Frame,3_74,2022-03-01T10:28:35.242Z,,,,1,A,3853.1610000118962,,,,,287172.39999997616,287172.3000000119,283302.472,283288.60000002384,283319.139,287202.55,,grey
,Fixation,canvas.Screen,3_75_0_0,2022-03-01T10:28:37.707Z,,,,1,VA,2450.048999999999,timeout,,,,289637.39999997616,289635.932,287185.883,287173.3000000119,287202.55,289652.599,,white
,Stimulus,canvas.Screen,3_75_0_1,2022-03-01T10:28:37.808Z,,,,1,VA,100.00200000003679,timeout,,,,289738.10000002384,289735.934,289635.932,289637.60000002384,289652.599,289752.601,,white
,Reaction,canvas.Screen,3_75_0_2,2022-03-01T10:28:39.309Z,,,,1,VA,1500.0299999999697,timeout,,,,291238.6999999881,291235.964,289735.934,289738.3000000119,289752.601,291252.631,,white
,Trial,flow.Sequence,3_75_0,2022-03-01T10:28:39.309Z,,,,1,VA,4033.4139999999898,completion,,,,291238.89999997616,291235.964,287185.883,287173.3000000119,287202.55,291252.631,,white
,Frame,canvas.Frame,3_75,2022-03-01T10:28:39.309Z,,,,1,VA,4036.4500000000116,,,,,291239.10000002384,291239,287185.883,287172.5,287202.55,291269.298,,white
,Fixation,canvas.Screen,3_76_0_0,2022-03-01T10:28:41.375Z,,,,1,VA,2050.0409999999683,timeout,,,,293305.1999999881,293302.672,291252.631,291240.10000002384,291269.298,293319.339,,white
,Stimulus,canvas.Screen,3_76_0_1,2022-03-01T10:28:41.475Z,,,,1,VA,100.00200000003679,timeout,,,,293404.6999999881,293402.674,293302.672,293305.60000002384,293319.339,293419.341,,white
,Reaction,canvas.Screen,3_76_0_2,2022-03-01T10:28:42.975Z,,,,1,VA,1500.0299999999697,timeout,,,,294905,294902.704,293402.674,293404.89999997616,293419.341,294919.371,,white
,Trial,flow.Sequence,3_76_0,2022-03-01T10:28:42.975Z,,,,1,VA,3633.4060000000172,completion,,,,294905.39999997616,294902.704,291252.631,291240,291269.298,294919.371,,white
,Frame,canvas.Frame,3_76,2022-03-01T10:28:42.976Z,,,,1,VA,3636.1019999761484,,,,,294905.5,294905.39999997616,291252.631,291239.1999999881,291269.298,294936.038,,white
,Fixation,canvas.Screen,3_77_0_0,2022-03-01T10:28:45.459Z,,,,0,V,2466.716000000015,timeout,,,,297388.5,297386.087,294919.371,294906.60000002384,294936.038,297402.754,,white
,Stimulus,canvas.Screen,3_77_0_1,2022-03-01T10:28:45.558Z,,,,0,V,100.00199999997858,timeout,,,,297487.89999997616,297486.089,297386.087,297388.60000002384,297402.754,297502.756,,white
,Reaction,canvas.Screen,3_77_0_2,2022-03-01T10:28:47.059Z,,,,0,V,1500.030000000028,timeout,,,,298988.60000002384,298986.119,297486.089,297488,297502.756,299002.786,,white
,Trial,flow.Sequence,3_77_0,2022-03-01T10:28:47.059Z,,,,0,V,4050.0810000000056,completion,,,,298989,298986.119,294919.371,294906.5,294936.038,299002.786,,white
,Frame,canvas.Frame,3_77,2022-03-01T10:28:47.059Z,,,,0,V,4053.0620000238414,,,,,298989.1999999881,298989.10000002384,294919.371,294905.6999999881,294936.038,299019.453,,white
,Fixation,canvas.Screen,3_78_0_0,2022-03-01T10:28:48.692Z,,,,1,A,1616.6990000000224,timeout,,,,300621.89999997616,300619.485,299002.786,298990.10000002384,299019.453,300636.152,,grey
,Stimulus,canvas.Screen,3_78_0_1,2022-03-01T10:28:48.792Z,,,,1,A,100.00199999997858,timeout,,,,300721.5,300719.487,300619.485,300622.10000002384,300636.152,300736.154,,grey
,Reaction,canvas.Screen,3_78_0_2,2022-03-01T10:28:50.292Z,,,,1,A,1500.030000000028,timeout,,,,302222,302219.517,300719.487,300721.6999999881,300736.154,302236.184,,grey
,Trial,flow.Sequence,3_78_0,2022-03-01T10:28:50.293Z,,,,1,A,3200.064000000013,completion,,,,302222.5,302219.517,299002.786,298990.10000002384,299019.453,302236.184,,grey
,Frame,canvas.Frame,3_78,2022-03-01T10:28:50.293Z,,,,1,A,3203.0470000000205,,,,,302222.60000002384,302222.5,299002.786,298989.3000000119,299019.453,302252.851,,grey
,Fixation,canvas.Screen,3_79_0_0,2022-03-01T10:28:52.676Z,,,,0,V,2366.713999999978,timeout,,,,304605.3000000119,304602.898,302236.184,302223.6999999881,302252.851,304619.565,,white
,Stimulus,canvas.Screen,3_79_0_1,2022-03-01T10:28:52.776Z,,,,0,V,100.00199999997858,timeout,,,,304705.5,304702.9,304602.898,304605.39999997616,304619.565,304719.567,,white
,Reaction,canvas.Screen,3_79_0_2,2022-03-01T10:28:54.275Z,,,,0,V,1500.030000000028,timeout,,,,306204.6999999881,306202.93,304702.9,304705.6999999881,304719.567,306219.597,,white
,Trial,flow.Sequence,3_79_0,2022-03-01T10:28:54.275Z,,,,0,V,3950.078999999969,completion,,,,306205,306202.93,302236.184,302223.60000002384,302252.851,306219.597,,white
,Frame,canvas.Frame,3_79,2022-03-01T10:28:54.276Z,,,,0,V,3952.148999999976,,,,,306205.1999999881,306205,302236.184,302222.8000000119,302252.851,306236.264,,white
,Fixation,canvas.Screen,3_80_0_0,2022-03-01T10:28:55.859Z,,,,1,VA,1566.6979999999749,timeout,,,,307788.5,307786.295,306219.597,306206.10000002384,306236.264,307802.962,,white
,Stimulus,canvas.Screen,3_80_0_1,2022-03-01T10:28:55.958Z,,,,1,VA,100.00199999997858,timeout,,,,307887.89999997616,307886.297,307786.295,307788.6999999881,307802.962,307902.964,,white
,Reaction,canvas.Screen,3_80_0_2,2022-03-01T10:28:57.459Z,,,,1,VA,1500.030000000028,timeout,,,,309388.60000002384,309386.327,307886.297,307888,307902.964,309402.994,,white
,Trial,flow.Sequence,3_80_0,2022-03-01T10:28:57.459Z,,,,1,VA,3150.0629999999655,completion,,,,309388.8000000119,309386.327,306219.597,306206.10000002384,306236.264,309402.994,,white
,Frame,canvas.Frame,3_80,2022-03-01T10:28:57.460Z,,,,1,VA,3152.6359999761335,,,,,309389,309388.89999997616,306219.597,306205.3000000119,306236.264,309419.661,,white
,Fixation,canvas.Screen,3_81_0_0,2022-03-01T10:28:59.726Z,,,,1,A,2250.0449999999837,timeout,,,,311655.5,311653.039,309402.994,309391.6999999881,309419.661,311669.706,,grey
,Stimulus,canvas.Screen,3_81_0_1,2022-03-01T10:28:59.825Z,,,,1,A,100.00199999997858,timeout,,,,311754.39999997616,311753.041,311653.039,311655.6999999881,311669.706,311769.708,,grey
,Reaction,canvas.Screen,3_81_0_2,2022-03-01T10:29:01.325Z,,,,1,A,1500.030000000028,timeout,,,,313254.60000002384,313253.071,311753.041,311754.5,311769.708,313269.738,,grey
,Trial,flow.Sequence,3_81_0,2022-03-01T10:29:01.326Z,,,,1,A,3833.4099999999744,completion,,,,313254.8000000119,313253.071,309402.994,309391.5,309419.661,313269.738,,grey
,Frame,canvas.Frame,3_81,2022-03-01T10:29:01.326Z,,,,1,A,3835.2389999761363,,,,,313255.10000002384,313254.89999997616,309402.994,309389.10000002384,309419.661,313286.405,,grey
,Fixation,canvas.Screen,3_82_0_0,2022-03-01T10:29:03.659Z,,,,1,VA,2316.712999999989,timeout,,,,315588.39999997616,315586.451,313269.738,313256,313286.405,315603.118,,white
,Stimulus,canvas.Screen,3_82_0_1,2022-03-01T10:29:03.759Z,,,,1,VA,100.00199999997858,timeout,,,,315688.39999997616,315686.453,315586.451,315588.60000002384,315603.118,315703.12,,white
,Reaction,canvas.Screen,3_82_0_2,2022-03-01T10:29:05.259Z,,,,1,VA,1500.030000000028,timeout,,,,317187.8000000119,317186.483,315686.453,315688.60000002384,315703.12,317203.15,,white
,Trial,flow.Sequence,3_82_0,2022-03-01T10:29:05.259Z,,,,1,VA,3900.0779999999795,completion,,,,317188,317186.483,313269.738,313255.89999997616,313286.405,317203.15,,white
,Frame,canvas.Frame,3_82,2022-03-01T10:29:05.259Z,,,,1,VA,3901.695000023814,,,,,317188.1999999881,317188.10000002384,313269.738,313255.1999999881,313286.405,317219.817,,white
,Fixation,canvas.Screen,3_83_0_0,2022-03-01T10:29:06.776Z,,,,0,V,1500.030000000028,timeout,,,,318705.10000002384,318703.18,317203.15,317189.1999999881,317219.817,318719.847,,white
,Stimulus,canvas.Screen,3_83_0_1,2022-03-01T10:29:06.876Z,,,,0,V,100.00199999997858,timeout,,,,318805.60000002384,318803.182,318703.18,318705.3000000119,318719.847,318819.849,,white
,Reaction,canvas.Screen,3_83_0_2,2022-03-01T10:29:08.376Z,,,,0,V,1500.030000000028,timeout,,,,320305.3000000119,320303.212,318803.182,318805.8000000119,318819.849,320319.879,,white
,Trial,flow.Sequence,3_83_0,2022-03-01T10:29:08.376Z,,,,0,V,3083.3950000000186,completion,,,,320305.5,320303.212,317203.15,317189.1999999881,317219.817,320319.879,,white
,Frame,canvas.Frame,3_83,2022-03-01T10:29:08.377Z,,,,0,V,3085.783000023861,,,,,320305.6999999881,320305.60000002384,317203.15,317188.39999997616,317219.817,320336.546,,white
,Fixation,canvas.Screen,3_84_0_0,2022-03-01T10:29:10.242Z,,,,1,A,1850.0370000000112,timeout,,,,322171.1999999881,322169.916,320319.879,320306.60000002384,320336.546,322186.583,,grey
,Stimulus,canvas.Screen,3_84_0_1,2022-03-01T10:29:10.343Z,,,,1,A,100.00200000003679,timeout,,,,322272.3000000119,322269.918,322169.916,322171.39999997616,322186.583,322286.585,,grey
,Reaction,canvas.Screen,3_84_0_2,2022-03-01T10:29:11.842Z,,,,1,A,1500.0299999999697,timeout,,,,323771,323769.948,322269.918,322272.5,322286.585,323786.615,,grey
,Trial,flow.Sequence,3_84_0,2022-03-01T10:29:11.842Z,,,,1,A,3433.402000000002,completion,,,,323771.3000000119,323769.948,320319.879,320306.60000002384,320336.546,323786.615,,grey
,Frame,canvas.Frame,3_84,2022-03-01T10:29:11.842Z,,,,1,A,3434.954000000027,,,,,323771.5,323771.5,320319.879,320305.8000000119,320336.546,323803.282,,grey
,Fixation,canvas.Screen,3_85_0_0,2022-03-01T10:29:13.526Z,,,,1,A,1666.7000000000116,timeout,,,,325455.10000002384,325453.315,323786.615,323772.39999997616,323803.282,325469.982,,grey
,Stimulus,canvas.Screen,3_85_0_1,2022-03-01T10:29:13.626Z,,,,1,A,100.00199999997858,timeout,,,,325555.10000002384,325553.317,325453.315,325455.1999999881,325469.982,325569.984,,grey
,Reaction,canvas.Screen,3_85_0_2,2022-03-01T10:29:15.127Z,,,,1,A,1500.030000000028,timeout,,,,327055.6999999881,327053.347,325553.317,325555.3000000119,325569.984,327070.014,,grey
,Trial,flow.Sequence,3_85_0,2022-03-01T10:29:15.127Z,,,,1,A,3250.0650000000023,completion,,,,327056,327053.347,323786.615,323772.39999997616,323803.282,327070.014,,grey
,Frame,canvas.Frame,3_85,2022-03-01T10:29:15.127Z,,,,1,A,3252.7179999999935,,,,,327056.10000002384,327056,323786.615,323771.5,323803.282,327086.681,,grey
,Fixation,canvas.Screen,3_86_0_0,2022-03-01T10:29:17.043Z,,,,1,VA,1900.0380000000005,timeout,,,,328972,328970.052,327070.014,327057.10000002384,327086.681,328986.719,,white
,Stimulus,canvas.Screen,3_86_0_1,2022-03-01T10:29:17.143Z,,,,1,VA,100.00200000003679,timeout,,,,329072,329070.054,328970.052,328972.1999999881,328986.719,329086.721,,white
,Reaction,canvas.Screen,3_86_0_2,2022-03-01T10:29:18.643Z,,,,1,VA,1500.0299999999697,timeout,,,,330572.1999999881,330570.084,329070.054,329072.1999999881,329086.721,330586.751,,white
,Trial,flow.Sequence,3_86_0,2022-03-01T10:29:18.644Z,,,,1,VA,3483.402999999991,completion,,,,330572.39999997616,330570.084,327070.014,327057,327086.681,330586.751,,white
,Frame,canvas.Frame,3_86,2022-03-01T10:29:18.644Z,,,,1,VA,3485.8190000000177,,,,,330572.60000002384,330572.5,327070.014,327056.1999999881,327086.681,330603.418,,white
,Fixation,canvas.Screen,3_87_0_0,2022-03-01T10:29:20.577Z,,,,1,VA,1916.7050000000163,timeout,,,,332506.10000002384,332503.456,330586.751,330573.60000002384,330603.418,332520.123,,white
,Stimulus,canvas.Screen,3_87_0_1,2022-03-01T10:29:20.677Z,,,,1,VA,100.00199999997858,timeout,,,,332605.6999999881,332603.458,332503.456,332506.3000000119,332520.123,332620.125,,white
,Reaction,canvas.Screen,3_87_0_2,2022-03-01T10:29:22.177Z,,,,1,VA,1500.030000000028,timeout,,,,334105.60000002384,334103.488,332603.458,332605.89999997616,332620.125,334120.155,,white
,Trial,flow.Sequence,3_87_0,2022-03-01T10:29:22.177Z,,,,1,VA,3500.070000000007,completion,,,,334105.8000000119,334103.488,330586.751,330573.5,330603.418,334120.155,,white
,Frame,canvas.Frame,3_87,2022-03-01T10:29:22.177Z,,,,1,VA,3502.581999999995,,,,,334106.10000002384,334106,330586.751,330572.6999999881,330603.418,334136.822,,white
,Fixation,canvas.Screen,3_88_0_0,2022-03-01T10:29:24.510Z,,,,1,A,2316.712999999989,timeout,,,,336439.10000002384,336436.868,334120.155,334106.89999997616,334136.822,336453.535,,grey
,Stimulus,canvas.Screen,3_88_0_1,2022-03-01T10:29:24.610Z,,,,1,A,100.00200000003679,timeout,,,,336538.5,336536.87,336436.868,336439.3000000119,336453.535,336553.537,,grey
,Reaction,canvas.Screen,3_88_0_2,2022-03-01T10:29:26.110Z,,,,1,A,1500.0299999999697,timeout,,,,338039.10000002384,338036.9,336536.87,336538.6999999881,336553.537,338053.567,,grey
,Trial,flow.Sequence,3_88_0,2022-03-01T10:29:26.111Z,,,,1,A,3900.0780000000377,completion,,,,338039.3000000119,338036.9,334120.155,334106.89999997616,334136.822,338053.567,,grey
,Frame,canvas.Frame,3_88,2022-03-01T10:29:26.111Z,,,,1,A,3902.6780000000144,,,,,338039.60000002384,338039.5,334120.155,334106.10000002384,334136.822,338103.568,,grey
,Fixation,canvas.Screen,3_89_0_0,2022-03-01T10:29:28.577Z,,,,1,VA,2416.7149999999674,timeout,,,,340506,340503.616,338053.567,338040.5,338103.568,340520.283,,white
,Stimulus,canvas.Screen,3_89_0_1,2022-03-01T10:29:28.677Z,,,,1,VA,100.00199999997858,timeout,,,,340605.1999999881,340603.618,340503.616,340506.1999999881,340520.283,340620.285,,white
,Reaction,canvas.Screen,3_89_0_2,2022-03-01T10:29:30.177Z,,,,1,VA,1500.030000000028,timeout,,,,342105.5,342103.648,340603.618,340605.3000000119,340620.285,342120.315,,white
,Trial,flow.Sequence,3_89_0,2022-03-01T10:29:30.177Z,,,,1,VA,4000.079999999958,completion,,,,342105.8000000119,342103.648,338053.567,338040.39999997616,338103.568,342120.315,,white
,Frame,canvas.Frame,3_89,2022-03-01T10:29:30.177Z,,,,1,VA,4002.3319999761297,,,,,342106,342105.89999997616,338053.567,338039.6999999881,338103.568,342136.982,,white
,Fixation,canvas.Screen,3_90_0_0,2022-03-01T10:29:31.777Z,,,,1,VA,1583.3649999999907,timeout,,,,343705.10000002384,343703.68,342120.315,342107,342136.982,343720.347,,white
,Stimulus,canvas.Screen,3_90_0_1,2022-03-01T10:29:31.877Z,,,,1,VA,100.00199999997858,timeout,,,,343805.89999997616,343803.682,343703.68,343705.3000000119,343720.347,343820.349,,white
,Reaction,canvas.Screen,3_90_0_2,2022-03-01T10:29:33.378Z,,,,1,VA,1500.030000000028,timeout,,,,345306.1999999881,345303.712,343803.682,343806.3000000119,343820.349,345320.379,,white
,Trial,flow.Sequence,3_90_0,2022-03-01T10:29:33.378Z,,,,1,VA,3166.7299999999814,completion,,,,345306.60000002384,345303.712,342120.315,342107,342136.982,345320.379,,white
,Frame,canvas.Frame,3_90,2022-03-01T10:29:33.378Z,,,,1,VA,3169.717999988061,,,,,345306.8000000119,345306.6999999881,342120.315,342106.10000002384,342136.982,345337.046,,white
,Fixation,canvas.Screen,3_91_0_0,2022-03-01T10:29:35.094Z,,,,1,A,1700.0340000000433,timeout,,,,347022.3000000119,347020.413,345320.379,345307.6999999881,345337.046,347037.08,,grey
,Stimulus,canvas.Screen,3_91_0_1,2022-03-01T10:29:35.194Z,,,,1,A,100.00199999997858,timeout,,,,347122.5,347120.415,347020.413,347022.60000002384,347037.08,347137.082,,grey
,Reaction,canvas.Screen,3_91_0_2,2022-03-01T10:29:36.694Z,,,,1,A,1500.030000000028,timeout,,,,348622.10000002384,348620.445,347120.415,347122.8000000119,347137.082,348637.112,,grey
,Trial,flow.Sequence,3_91_0,2022-03-01T10:29:36.694Z,,,,1,A,3283.399000000034,completion,,,,348622.3000000119,348620.445,345320.379,345307.60000002384,345337.046,348637.112,,grey
,Frame,canvas.Frame,3_91,2022-03-01T10:29:36.694Z,,,,1,A,3285.353999976185,,,,,348622.5,348622.39999997616,345320.379,345306.8000000119,345337.046,348653.779,,grey
,Fixation,canvas.Screen,3_92_0_0,2022-03-01T10:29:38.228Z,,,,1,A,1533.3640000000014,timeout,,,,350156.10000002384,350153.809,348637.112,348623.39999997616,348653.779,350187.143,,grey
,Stimulus,canvas.Screen,3_92_0_1,2022-03-01T10:29:38.344Z,,,,1,A,100.00200000003679,timeout,,,,350272.6999999881,350270.478,350153.809,350156.39999997616,350187.143,350287.145,,grey
,Reaction,canvas.Screen,3_92_0_2,2022-03-01T10:29:39.845Z,,,,1,A,1500.0299999999697,timeout,,,,351772.89999997616,351770.508,350270.478,350273,350287.145,351787.175,,grey
,Trial,flow.Sequence,3_92_0,2022-03-01T10:29:39.845Z,,,,1,A,3116.728999999992,completion,,,,351773.1999999881,351770.508,348637.112,348623.39999997616,348653.779,351787.175,,grey
,Frame,canvas.Frame,3_92,2022-03-01T10:29:39.845Z,,,,1,A,3119.5210000119405,,,,,351773.39999997616,351773.3000000119,348637.112,348622.6999999881,348653.779,351803.842,,grey
,Fixation,canvas.Screen,3_93_0_0,2022-03-01T10:29:41.462Z,,,,1,VA,1600.0320000000065,timeout,,,,353389.8000000119,353387.207,351787.175,351774.39999997616,351803.842,353403.874,,white
,Stimulus,canvas.Screen,3_93_0_1,2022-03-01T10:29:41.561Z,,,,1,VA,100.00199999997858,timeout,,,,353489,353487.209,353387.207,353390,353403.874,353503.876,,white
,Reaction,canvas.Screen,3_93_0_2,2022-03-01T10:29:43.061Z,,,,1,VA,1500.030000000028,timeout,,,,354989.39999997616,354987.239,353487.209,353489.1999999881,353503.876,355003.906,,white
,Trial,flow.Sequence,3_93_0,2022-03-01T10:29:43.062Z,,,,1,VA,3183.396999999997,completion,,,,354989.6999999881,354987.239,351787.175,351774.3000000119,351803.842,355003.906,,white
,Frame,canvas.Frame,3_93,2022-03-01T10:29:43.062Z,,,,1,VA,3185.9580000119167,,,,,354989.89999997616,354989.8000000119,351787.175,351773.5,351803.842,355020.573,,white
,Fixation,canvas.Screen,3_94_0_0,2022-03-01T10:29:44.861Z,,,,0,V,1783.369000000006,timeout,,,,356789.60000002384,356787.275,355003.906,354990.8000000119,355020.573,356803.942,,white
,Stimulus,canvas.Screen,3_94_0_1,2022-03-01T10:29:44.962Z,,,,0,V,100.00200000003679,timeout,,,,356889.89999997616,356887.277,356787.275,356789.8000000119,356803.942,356903.944,,white
,Reaction,canvas.Screen,3_94_0_2,2022-03-01T10:29:46.462Z,,,,0,V,1500.0299999999697,timeout,,,,358390,358387.307,356887.277,356890.10000002384,356903.944,358403.974,,white
,Trial,flow.Sequence,3_94_0,2022-03-01T10:29:46.462Z,,,,0,V,3366.7339999999967,completion,,,,358390.3000000119,358387.307,355003.906,354990.8000000119,355020.573,358403.974,,white
,Frame,canvas.Frame,3_94,2022-03-01T10:29:46.462Z,,,,0,V,3369.727000011946,,,,,358390.5,358390.3000000119,355003.906,354990,355020.573,358420.641,,white
,Fixation,canvas.Screen,3_95_0_0,2022-03-01T10:29:48.695Z,,,,1,A,2216.7110000000102,timeout,,,,360623,360620.685,358403.974,358391.5,358420.641,360637.352,,grey
,Stimulus,canvas.Screen,3_95_0_1,2022-03-01T10:29:48.794Z,,,,1,A,100.00199999997858,timeout,,,,360722.39999997616,360720.687,360620.685,360623.3000000119,360637.352,360737.354,,grey
,Reaction,canvas.Screen,3_95_0_2,2022-03-01T10:29:50.295Z,,,,1,A,1500.030000000028,timeout,,,,362222.89999997616,362220.717,360720.687,360722.60000002384,360737.354,362237.384,,grey
,Trial,flow.Sequence,3_95_0,2022-03-01T10:29:50.295Z,,,,1,A,3800.076000000001,completion,,,,362223.1999999881,362220.717,358403.974,358391.39999997616,358420.641,362237.384,,grey
,Frame,canvas.Frame,3_95,2022-03-01T10:29:50.295Z,,,,1,A,3802.6590000119177,,,,,362223.39999997616,362223.3000000119,358403.974,358390.5,358420.641,362254.051,,grey
,Fixation,canvas.Screen,3_96_0_0,2022-03-01T10:29:52.712Z,,,,0,V,2400.04800000001,timeout,,,,364639.60000002384,364637.432,362237.384,362224.39999997616,362254.051,364654.099,,white
,Stimulus,canvas.Screen,3_96_0_1,2022-03-01T10:29:52.811Z,,,,0,V,100.00200000003679,timeout,,,,364739.10000002384,364737.434,364637.432,364639.8000000119,364654.099,364754.101,,white
,Reaction,canvas.Screen,3_96_0_2,2022-03-01T10:29:54.312Z,,,,0,V,1500.0299999999697,timeout,,,,366239.5,366237.464,364737.434,364739.1999999881,364754.101,366254.131,,white
,Trial,flow.Sequence,3_96_0,2022-03-01T10:29:54.312Z,,,,0,V,3983.4130000000005,completion,,,,366239.6999999881,366237.464,362237.384,362224.1999999881,362254.051,366254.131,,white
,Frame,canvas.Frame,3_96,2022-03-01T10:29:54.312Z,,,,0,V,3985.8489999761805,,,,,366240,366239.89999997616,362237.384,362223.5,362254.051,366270.798,,white
,Fixation,canvas.Screen,3_97_0_0,2022-03-01T10:29:55.879Z,,,,0,V,1550.0310000000172,timeout,,,,367806.39999997616,367804.162,366254.131,366240.89999997616,366270.798,367820.829,,white
,Stimulus,canvas.Screen,3_97_0_1,2022-03-01T10:29:55.978Z,,,,0,V,100.00199999997858,timeout,,,,367906.10000002384,367904.164,367804.162,367806.60000002384,367820.829,367920.831,,white
,Reaction,canvas.Screen,3_97_0_2,2022-03-01T10:29:57.478Z,,,,0,V,1500.0299999999697,timeout,,,,369406.3000000119,369404.194,367904.164,367906.3000000119,367920.831,369420.861,,white
,Trial,flow.Sequence,3_97_0,2022-03-01T10:29:57.479Z,,,,0,V,3133.396000000008,completion,,,,369406.60000002384,369404.194,366254.131,366240.8000000119,366270.798,369420.861,,white
,Frame,canvas.Frame,3_97,2022-03-01T10:29:57.479Z,,,,0,V,3135.9019999880693,,,,,369406.8000000119,369406.6999999881,366254.131,366240.10000002384,366270.798,369437.528,,white
,Fixation,canvas.Screen,3_98_0_0,2022-03-01T10:29:59.945Z,,,,1,A,2450.048999999999,timeout,,,,371872.3000000119,371870.91,369420.861,369407.89999997616,369437.528,371887.577,,grey
,Stimulus,canvas.Screen,3_98_0_1,2022-03-01T10:30:00.045Z,,,,1,A,100.00200000003679,timeout,,,,371973.10000002384,371970.912,371870.91,371872.39999997616,371887.577,371987.579,,grey
,Reaction,canvas.Screen,3_98_0_2,2022-03-01T10:30:01.546Z,,,,1,A,1500.0299999999697,timeout,,,,373473.39999997616,373470.942,371970.912,371973.3000000119,371987.579,373487.609,,grey
,Trial,flow.Sequence,3_98_0,2022-03-01T10:30:01.546Z,,,,1,A,4033.4139999999898,completion,,,,373473.6999999881,373470.942,369420.861,369407.89999997616,369437.528,373487.609,,grey
,Frame,canvas.Frame,3_98,2022-03-01T10:30:01.546Z,,,,1,A,4036.27200001193,,,,,373473.89999997616,373473.8000000119,369420.861,369406.89999997616,369437.528,373504.276,,grey
,Fixation,canvas.Screen,3_99_0_0,2022-03-01T10:30:03.446Z,,,,1,VA,1883.3709999999846,timeout,,,,375373.5,375370.98,373487.609,373474.89999997616,373504.276,375387.647,,white
,Stimulus,canvas.Screen,3_99_0_1,2022-03-01T10:30:03.546Z,,,,1,VA,100.00199999997858,timeout,,,,375473.8000000119,375470.982,375370.98,375373.6999999881,375387.647,375487.649,,white
,Reaction,canvas.Screen,3_99_0_2,2022-03-01T10:30:05.046Z,,,,1,VA,1500.030000000028,timeout,,,,376973.60000002384,376971.012,375470.982,375474.10000002384,375487.649,376987.679,,white
,Trial,flow.Sequence,3_99_0,2022-03-01T10:30:05.046Z,,,,1,VA,3466.7359999999753,completion,,,,376973.8000000119,376971.012,373487.609,373474.89999997616,373504.276,376987.679,,white
,Frame,canvas.Frame,3_99,2022-03-01T10:30:05.046Z,,,,1,VA,3469.6239999761456,,,,,376974,376973.89999997616,373487.609,373474.10000002384,373504.276,377004.346,,white
,Loop,flow.Loop,3,2022-03-01T10:30:05.047Z,,,,,,361093.44299997616,completion,,,,376974.39999997616,376973.89999997616,15863.79,15866.5,15880.457,377004.346,,
,end,html.Page,4,2022-03-01T10:30:10.055Z,,,,,,4977.754000023822,form submission,,,,381982.39999997616,381982.10000002384,376987.679,376974.5,377004.346,381971.112,,
,root,flow.Sequence,,2022-03-01T10:30:10.056Z,,,,,,380801.93700002384,completion,,,,381983.10000002384,381982.10000002384,1163.496,1154.699999988079,1180.163,381971.112,,